File: xrd_example_data_files/Ba(NO3)2.csv
'y-axis saved as y
'x,NN_StartingMaterials_Ba(NO3)2.raw
5,37
5.03717,39
5.07434,28
5.11151,30
5.14869,33
5.185858,34
5.22303,27
5.2602,33
5.29737,44
5.33454,22
5.371716,35
5.40889,28
5.44606,35
5.48323,26
5.5204,34
5.557574,37
5.59475,32
5.63192,33
5.66909,41
5.70626,35
5.743432,41
5.7806,45
5.81778,29
5.85495,42
5.89212,24
5.92929,21
5.96646,26
6.00363,34
6.0408,32
6.07798,26
6.115148,34
6.15232,21
6.18949,23
6.22666,28
6.26383,25
6.301006,32
6.33818,34
6.37535,20
6.41252,34
6.44969,28
6.486864,33
6.52404,23
6.56121,29
6.59838,26
6.63555,30
6.672722,26
6.70989,31
6.74707,30
6.78424,27
6.82141,28
6.85858,23
6.89575,24
6.93292,30
6.97009,24
7.00727,32
7.044438,24
7.08161,28
7.11878,31
7.15595,21
7.19312,21
7.230296,24
7.26747,24
7.30464,23
7.34181,19
7.37898,25
7.416154,21
7.45333,25
7.4905,25
7.52767,26
7.56484,27
7.602012,19
7.63918,25
7.67636,37
7.71353,31
7.7507,26
7.78787,28
7.82504,33
7.86221,16
7.89938,20
7.93656,20
7.973728,22
8.0109,19
8.04807,28
8.08524,28
8.12241,20
8.159586,29
8.19676,20
8.23393,26
8.2711,31
8.30827,27
8.345444,30
8.38262,17
8.41979,25
8.45696,30
8.49413,21
8.531302,30
8.56847,29
8.60565,33
8.64282,16
8.67999,24
8.71716,19
8.75433,21
8.7915,29
8.82867,22
8.86585,22
8.903018,11
8.94019,22
8.97736,22
9.01453,20
9.0517,20
9.088876,19
9.12605,22
9.16322,19
9.20039,25
9.23756,19
9.274734,20
9.31191,19
9.34908,24
9.38625,25
9.42342,19
9.460592,23
9.49776,19
9.53494,24
9.57211,26
9.60928,15
9.64645,16
9.68362,19
9.72079,22
9.75796,28
9.79514,16
9.832308,16
9.86948,23
9.90665,23
9.94382,19
9.98099,25
10.0182,22
10.0553,17
10.0925,14
10.1297,17
10.1669,27
10.204,19
10.2412,24
10.2784,16
10.3155,13
10.3527,29
10.3899,22
10.4271,12
10.4642,19
10.5014,20
10.5386,21
10.57574,17
10.6129,23
10.6501,26
10.6873,22
10.7244,20
10.7616,14
10.7988,14
10.8359,22
10.8731,21
10.9103,18
10.9475,18
10.9846,17
11.0218,23
11.059,20
11.0961,17
11.1333,24
11.1705,19
11.2077,18
11.2448,16
11.282,16
11.3192,18
11.3563,23
11.3935,14
11.4307,19
11.4679,17
11.50503,32
11.5422,20
11.5794,22
11.6165,16
11.6537,19
11.6909,22
11.7281,22
11.7652,16
11.8024,15
11.8396,18
11.8767,13
11.9139,20
11.9511,16
11.9883,18
12.0254,18
12.0626,28
12.0998,19
12.1369,23
12.1741,23
12.2113,26
12.2485,12
12.2856,23
12.3228,15
12.36,17
12.3971,25
12.43432,18
12.4715,15
12.5087,11
12.5458,17
12.583,21
12.6202,20
12.6573,12
12.6945,11
12.7317,22
12.7689,20
12.806,20
12.8432,19
12.8804,22
12.9176,13
12.9547,18
12.9919,14
13.0291,15
13.0662,19
13.1034,14
13.1406,14
13.1778,23
13.2149,18
13.2521,14
13.2893,8
13.3264,17
13.36361,15
13.4008,22
13.438,18
13.4751,14
13.5123,19
13.5495,11
13.5866,20
13.6238,14
13.661,16
13.6982,8
13.7353,11
13.7725,16
13.8097,9
13.8468,22
13.884,20
13.9212,8
13.9584,10
13.9955,19
14.0327,11
14.0699,27
14.107,11
14.1442,21
14.1814,12
14.2186,17
14.2557,17
14.2929,15
14.3301,20
14.3672,16
14.4044,21
14.4416,19
14.4788,14
14.5159,20
14.5531,13
14.5903,16
14.6274,14
14.6646,12
14.7018,15
14.739,22
14.7761,10
14.8133,19
14.8505,17
14.8876,17
14.9248,15
14.962,15
14.9992,23
15.0363,12
15.0735,23
15.1107,18
15.1478,22
15.185,13
15.22219,18
15.2594,14
15.2965,15
15.3337,13
15.3709,18
15.408,16
15.4452,20
15.4824,13
15.5196,15
15.5567,11
15.5939,23
15.6311,13
15.6682,16
15.7054,18
15.7426,12
15.7798,19
15.8169,22
15.8541,12
15.8913,22
15.9285,19
15.9656,21
16.0028,15
16.04,18
16.0771,19
16.1143,14
16.15148,15
16.1887,17
16.2258,21
16.263,15
16.3002,12
16.3373,15
16.3745,17
16.4117,17
16.4489,17
16.486,15
16.5232,12
16.5604,16
16.5975,14
16.6347,18
16.6719,21
16.7091,13
16.7462,20
16.7834,19
16.8206,10
16.8577,12
16.8949,15
16.9321,19
16.9693,12
17.0064,21
17.0436,19
17.08077,15
17.1179,12
17.1551,15
17.1923,22
17.2295,14
17.2666,19
17.3038,12
17.341,19
17.3781,16
17.4153,24
17.4525,17
17.4897,19
17.5268,14
17.564,11
17.6012,14
17.6383,18
17.6755,19
17.7127,13
17.7499,11
17.787,16
17.8242,11
17.8614,11
17.8985,11
17.9357,14
17.9729,16
18.01006,20
18.0472,13
18.0844,14
18.1216,14
18.1587,9
18.1959,15
18.2331,21
18.2703,18
18.3074,11
18.3446,19
18.3818,19
18.4189,15
18.4561,19
18.4933,16
18.5305,16
18.5676,15
18.6048,23
18.642,28
18.6791,18
18.7163,15
18.7535,22
18.7907,23
18.8278,20
18.865,48
18.9022,45
18.93935,97
18.9765,281
19.0137,543
19.0509,470
19.088,404
19.1252,216
19.1624,146
19.1996,124
19.2367,95
19.2739,72
19.3111,26
19.3482,25
19.3854,22
19.4226,16
19.4598,25
19.4969,15
19.5341,15
19.5713,17
19.6084,15
19.6456,24
19.6828,12
19.72,16
19.7571,18
19.7943,12
19.8315,25
19.86864,20
19.9058,19
19.943,15
19.9802,17
20.0173,18
20.0545,21
20.0917,15
20.1288,20
20.166,23
20.2032,18
20.2404,12
20.2775,15
20.3147,11
20.3519,16
20.389,17
20.4262,16
20.4634,19
20.5006,24
20.5377,16
20.5749,17
20.6121,13
20.6492,20
20.6864,14
20.7236,15
20.7608,19
20.79793,19
20.8351,11
20.8723,16
20.9094,15
20.9466,19
20.9838,15
21.021,8
21.0581,16
21.0953,11
21.1325,16
21.1696,15
21.2068,16
21.244,12
21.2812,19
21.3183,16
21.3555,23
21.3927,21
21.4298,13
21.467,19
21.5042,20
21.5414,19
21.5785,24
21.6157,13
21.6529,12
21.69,15
21.72722,19
21.7644,17
21.8016,16
21.8387,26
21.8759,25
21.9131,57
21.9502,96
21.9874,113
22.0246,102
22.0618,56
22.0989,27
22.1361,25
22.1733,20
22.2105,27
22.2476,21
22.2848,17
22.322,13
22.3591,13
22.3963,21
22.4335,14
22.4707,9
22.5078,15
22.545,12
22.5822,14
22.6193,8
22.65651,13
22.6937,17
22.7309,17
22.768,13
22.8052,13
22.8424,9
22.8795,16
22.9167,12
22.9539,22
22.9911,19
23.0282,17
23.0654,20
23.1026,10
23.1397,21
23.1769,22
23.2141,12
23.2513,9
23.2884,16
23.3256,14
23.3628,16
23.3999,18
23.4371,12
23.4743,15
23.5115,14
23.5486,19
23.5858,12
23.623,15
23.6601,19
23.6973,13
23.7345,9
23.7717,9
23.8088,18
23.846,13
23.8832,20
23.9203,13
23.9575,18
23.9947,18
24.0319,20
24.069,15
24.1062,12
24.1434,14
24.1805,6
24.2177,10
24.2549,8
24.2921,20
24.3292,16
24.3664,13
24.4036,19
24.4407,18
24.4779,15
24.51509,26
24.5523,35
24.5894,45
24.6266,39
24.6638,33
24.7009,34
24.7381,32
24.7753,33
24.8125,27
24.8496,15
24.8868,17
24.924,12
24.9611,20
24.9983,20
25.0355,12
25.0727,16
25.1098,11
25.147,16
25.1842,16
25.2214,12
25.2585,17
25.2957,10
25.3329,18
25.37,10
25.4072,16
25.44438,12
25.4816,16
25.5187,10
25.5559,18
25.5931,12
25.6302,13
25.6674,11
25.7046,17
25.7418,25
25.7789,13
25.8161,12
25.8533,13
25.8904,8
25.9276,18
25.9648,20
26.002,17
26.0391,14
26.0763,14
26.1135,20
26.1506,13
26.1878,13
26.225,9
26.2622,14
26.2993,16
26.3365,14
26.37367,11
26.4108,12
26.448,20
26.4852,20
26.5224,16
26.5595,23
26.5967,20
26.6339,12
26.671,19
26.7082,8
26.7454,12
26.7826,16
26.8197,15
26.8569,14
26.8941,20
26.9312,32
26.9684,39
27.0056,59
27.0428,27
27.0799,26
27.1171,19
27.1543,17
27.1914,12
27.2286,16
27.2658,17
27.30296,11
27.3401,10
27.3773,12
27.4145,13
27.4516,20
27.4888,13
27.526,9
27.5632,13
27.6003,6
27.6375,11
27.6747,14
27.7118,13
27.749,18
27.7862,9
27.8234,11
27.8605,11
27.8977,22
27.9349,19
27.972,12
28.0092,12
28.0464,18
28.0836,12
28.1207,11
28.1579,11
28.1951,11
28.23225,10
28.2694,8
28.3066,9
28.3438,11
28.3809,13
28.4181,12
28.4553,17
28.4925,6
28.5296,17
28.5668,15
28.604,16
28.6411,17
28.6783,16
28.7155,7
28.7527,15
28.7898,12
28.827,9
28.8642,13
28.9013,13
28.9385,10
28.9757,16
29.0129,16
29.05,15
29.0872,12
29.1244,20
29.16154,8
29.1987,7
29.2359,20
29.2731,16
29.3102,13
29.3474,19
29.3846,16
29.4217,16
29.4589,16
29.4961,7
29.5333,8
29.5704,13
29.6076,8
29.6448,12
29.6819,12
29.7191,10
29.7563,17
29.7935,16
29.8306,21
29.8678,9
29.905,20
29.9421,13
29.9793,21
30.0165,11
30.0537,13
30.09083,20
30.128,16
30.1652,5
30.2023,10
30.2395,8
30.2767,17
30.3139,13
30.351,9
30.3882,12
30.4254,10
30.4625,11
30.4997,14
30.5369,12
30.5741,10
30.6112,10
30.6484,17
30.6856,14
30.7227,22
30.7599,12
30.7971,17
30.8343,15
30.8714,17
30.9086,17
30.9458,13
30.9829,16
31.02012,10
31.0573,16
31.0945,19
31.1316,22
31.1688,33
31.206,86
31.2431,131
31.2803,99
31.3175,65
31.3547,44
31.3918,28
31.429,21
31.4662,16
31.5034,17
31.5405,14
31.5777,12
31.6149,12
31.652,12
31.6892,17
31.7264,18
31.7636,6
31.8007,18
31.8379,13
31.8751,13
31.9122,15
31.94941,9
31.9866,14
32.0238,15
32.0609,9
32.0981,21
32.1353,14
32.1724,4
32.2096,10
32.2468,17
32.284,15
32.3211,17
32.3583,12
32.3955,16
32.4326,7
32.4698,13
32.507,13
32.5442,6
32.5813,8
32.6185,10
32.6557,10
32.6928,15
32.73,13
32.7672,6
32.8044,11
32.8415,10
32.8787,18
32.9159,14
32.953,9
32.9902,12
33.0274,9
33.0646,14
33.1017,14
33.1389,9
33.1761,14
33.2132,14
33.2504,10
33.2876,13
33.3248,10
33.3619,13
33.3991,14
33.4363,17
33.4734,10
33.5106,11
33.5478,12
33.585,14
33.6221,8
33.6593,13
33.6965,12
33.7336,18
33.7708,14
33.80799,10
33.8452,4
33.8823,14
33.9195,7
33.9567,13
33.9938,7
34.031,11
34.0682,9
34.1054,6
34.1425,10
34.1797,9
34.2169,16
34.254,17
34.2912,8
34.3284,18
34.3656,12
34.4027,13
34.4399,11
34.4771,26
34.5143,19
34.5514,10
34.5886,14
34.6258,12
34.6629,8
34.7001,8
34.73728,10
34.7745,13
34.8116,13
34.8488,14
34.886,11
34.9231,21
34.9603,14
34.9975,10
35.0347,16
35.0718,11
35.109,10
35.1462,11
35.1833,15
35.2205,9
35.2577,15
35.2949,13
35.332,6
35.3692,7
35.4064,3
35.4435,17
35.4807,10
35.5179,15
35.5551,10
35.5922,5
35.6294,16
35.66657,17
35.7037,10
35.7409,14
35.7781,16
35.8153,9
35.8524,15
35.8896,17
35.9268,15
35.9639,9
36.0011,9
36.0383,19
36.0755,14
36.1126,18
36.1498,7
36.187,5
36.2241,6
36.2613,18
36.2985,19
36.3357,12
36.3728,14
36.41,15
36.4472,13
36.4843,11
36.5215,13
36.5587,9
36.59586,17
36.633,17
36.6702,30
36.7074,64
36.7445,191
36.7817,255
36.8189,161
36.8561,179
36.8932,123
36.9304,53
36.9676,34
37.0047,27
37.0419,16
37.0791,20
37.1163,15
37.1534,16
37.1906,20
37.2278,17
37.2649,21
37.3021,17
37.3393,18
37.3765,15
37.4136,18
37.4508,14
37.488,12
37.52515,11
37.5623,10
37.5995,18
37.6367,7
37.6738,13
37.711,14
37.7482,15
37.7854,17
37.8225,9
37.8597,14
37.8969,13
37.934,12
37.9712,14
38.0084,10
38.0456,18
38.0827,12
38.1199,15
38.1571,14
38.1942,14
38.2314,19
38.2686,14
38.3058,30
38.3429,37
38.3801,73
38.4173,268
38.45444,397
38.4916,359
38.5288,298
38.566,309
38.6031,106
38.6403,133
38.6775,168
38.7146,168
38.7518,49
38.789,29
38.8262,26
38.8633,16
38.9005,11
38.9377,16
38.9748,19
39.012,13
39.0492,7
39.0864,10
39.1235,13
39.1607,17
39.1979,13
39.235,12
39.2722,8
39.3094,7
39.3466,11
39.38373,13
39.4209,13
39.4581,11
39.4952,15
39.5324,13
39.5696,8
39.6068,18
39.6439,16
39.6811,11
39.7183,15
39.7554,11
39.7926,15
39.8298,13
39.867,7
39.9041,11
39.9413,9
39.9785,10
40.0156,12
40.0528,11
40.09,12
40.1272,11
40.1643,12
40.2015,12
40.2387,13
40.2758,13
40.31302,13
40.3502,10
40.3874,15
40.4245,11
40.4617,11
40.4989,10
40.536,12
40.5732,15
40.6104,7
40.6476,14
40.6847,5
40.7219,12
40.7591,19
40.7963,7
40.8334,8
40.8706,12
40.9078,7
40.9449,13
40.9821,10
41.0193,14
41.0565,10
41.0936,14
41.1308,11
41.168,10
41.2051,13
41.24231,14
41.2795,13
41.3167,9
41.3538,11
41.391,11
41.4282,10
41.4653,8
41.5025,12
41.5397,10
41.5769,6
41.614,12
41.6512,16
41.6884,15
41.7255,3
41.7627,12
41.7999,12
41.8371,7
41.8742,12
41.9114,13
41.9486,10
41.9857,9
42.0229,8
42.0601,11
42.0973,16
42.1344,14
42.1716,13
42.2088,11
42.2459,11
42.2831,12
42.3203,5
42.3575,10
42.3946,7
42.4318,8
42.469,9
42.5061,6
42.5433,14
42.5805,9
42.6177,11
42.6548,8
42.692,11
42.7292,9
42.7663,8
42.8035,9
42.8407,8
42.8779,7
42.915,8
42.9522,7
42.9894,14
43.0265,12
43.0637,13
43.10089,5
43.1381,13
43.1752,11
43.2124,5
43.2496,8
43.2867,15
43.3239,13
43.3611,5
43.3983,15
43.4354,8
43.4726,6
43.5098,8
43.5469,13
43.5841,6
43.6213,13
43.6585,15
43.6956,13
43.7328,12
43.77,10
43.8072,8
43.8443,15
43.8815,11
43.9187,12
43.9558,10
43.993,8
44.03018,13
44.0674,12
44.1045,10
44.1417,14
44.1789,17
44.216,7
44.2532,15
44.2904,8
44.3276,11
44.3647,14
44.4019,12
44.4391,10
44.4762,11
44.5134,13
44.5506,15
44.5878,16
44.6249,22
44.6621,60
44.6993,49
44.7364,97
44.7736,58
44.8108,40
44.848,45
44.8851,27
44.9223,15
44.95947,10
44.9966,12
45.0338,15
45.071,4
45.1082,9
45.1453,12
45.1825,9
45.2197,13
45.2568,12
45.294,9
45.3312,12
45.3684,16
45.4055,9
45.4427,6
45.4799,12
45.517,12
45.5542,20
45.5914,15
45.6286,13
45.6657,12
45.7029,12
45.7401,16
45.7772,7
45.8144,6
45.8516,7
45.88876,8
45.9259,13
45.9631,9
46.0003,9
46.0374,10
46.0746,8
46.1118,11
46.149,11
46.1861,10
46.2233,10
46.2605,15
46.2976,13
46.3348,9
46.372,12
46.4092,9
46.4463,8
46.4835,5
46.5207,8
46.5578,7
46.595,9
46.6322,7
46.6694,8
46.7065,11
46.7437,6
46.7809,7
46.81805,10
46.8552,14
46.8924,12
46.9296,8
46.9667,9
47.0039,13
47.0411,5
47.0783,10
47.1154,12
47.1526,15
47.1898,5
47.2269,9
47.2641,9
47.3013,12
47.3385,8
47.3756,8
47.4128,11
47.45,7
47.4871,11
47.5243,11
47.5615,6
47.5987,15
47.6358,10
47.673,10
47.7102,11
47.74734,14
47.7845,10
47.8217,8
47.8589,10
47.896,10
47.9332,13
47.9704,9
48.0075,8
48.0447,18
48.0819,8
48.1191,6
48.1562,10
48.1934,17
48.2306,6
48.2677,10
48.3049,7
48.3421,10
48.3793,8
48.4164,14
48.4536,12
48.4908,7
48.5279,9
48.5651,8
48.6023,8
48.6395,8
48.67663,10
48.7138,8
48.751,14
48.7881,10
48.8253,8
48.8625,13
48.8997,57
48.9368,61
48.974,80
49.0112,39
49.0483,55
49.0855,33
49.1227,33
49.1599,20
49.197,19
49.2342,12
49.2714,6
49.3085,6
49.3457,12
49.3829,8
49.4201,3
49.4572,8
49.4944,15
49.5316,10
49.5687,12
49.60592,10
49.6431,11
49.6803,14
49.7174,10
49.7546,10
49.7918,12
49.8289,9
49.8661,13
49.9033,14
49.9405,10
49.9776,7
50.0148,12
50.052,8
50.0892,5
50.1263,8
50.1635,12
50.2007,15
50.2378,27
50.275,45
50.3122,62
50.3494,30
50.3865,35
50.4237,41
50.4609,23
50.498,12
50.53521,15
50.5724,9
50.6096,6
50.6467,11
50.6839,9
50.7211,4
50.7582,11
50.7954,9
50.8326,6
50.8698,12
50.9069,12
50.9441,11
50.9813,7
51.0184,12
51.0556,8
51.0928,5
51.13,11
51.1671,10
51.2043,10
51.2415,4
51.2786,8
51.3158,7
51.353,13
51.3902,11
51.4273,5
51.4645,10
51.5017,8
51.5388,16
51.576,10
51.6132,18
51.6504,13
51.6875,7
51.7247,22
51.7619,17
51.799,35
51.8362,28
51.8734,12
51.9106,11
51.9477,7
51.9849,12
52.0221,10
52.0592,11
52.0964,12
52.1336,12
52.1708,12
52.2079,10
52.2451,9
52.2823,8
52.3194,8
52.3566,9
52.39379,12
52.431,15
52.4681,11
52.5053,7
52.5425,10
52.5796,3
52.6168,10
52.654,11
52.6912,9
52.7283,8
52.7655,12
52.8027,8
52.8398,6
52.877,10
52.9142,10
52.9514,7
52.9885,8
53.0257,6
53.0629,7
53.1001,7
53.1372,7
53.1744,3
53.2116,13
53.2487,13
53.2859,16
53.32308,9
53.3603,11
53.3974,8
53.4346,10
53.4718,11
53.5089,10
53.5461,7
53.5833,9
53.6205,13
53.6576,8
53.6948,6
53.732,8
53.7691,12
53.8063,5
53.8435,10
53.8807,5
53.9178,11
53.955,13
53.9922,14
54.0293,6
54.0665,10
54.1037,10
54.1409,10
54.178,9
54.2152,11
54.25237,8
54.2895,12
54.3267,5
54.3639,11
54.4011,9
54.4382,11
54.4754,14
54.5126,7
54.5497,4
54.5869,11
54.6241,6
54.6613,10
54.6984,7
54.7356,9
54.7728,8
54.8099,11
54.8471,7
54.8843,7
54.9215,8
54.9586,11
54.9958,13
55.033,14
55.0701,15
55.1073,11
55.1445,3
55.18166,7
55.2188,12
55.256,7
55.2932,8
55.3303,13
55.3675,17
55.4047,19
55.4419,56
55.479,97
55.5162,114
55.5534,35
55.5905,29
55.6277,86
55.6649,66
55.7021,20
55.7392,14
55.7764,13
55.8136,12
55.8507,10
55.8879,9
55.9251,10
55.9623,8
55.9994,13
56.0366,19
56.0738,11
56.11095,11
56.1481,10
56.1853,6
56.2225,6
56.2596,6
56.2968,12
56.334,12
56.3712,7
56.4083,6
56.4455,11
56.4827,8
56.5198,8
56.557,18
56.5942,8
56.6314,13
56.6685,10
56.7057,14
56.7429,9
56.78,7
56.8172,11
56.8544,9
56.8916,5
56.9287,11
56.9659,7
57.0031,9
57.04024,9
57.0774,7
57.1146,12
57.1518,2
57.1889,12
57.2261,6
57.2633,8
57.3004,11
57.3376,12
57.3748,11
57.412,11
57.4491,12
57.4863,17
57.5235,9
57.5606,9
57.5978,13
57.635,10
57.6722,10
57.7093,8
57.7465,11
57.7837,16
57.8208,10
57.858,7
57.8952,13
57.9324,11
57.96953,12
58.0067,9
58.0439,14
58.081,6
58.1182,14
58.1554,9
58.1926,15
58.2297,12
58.2669,12
58.3041,15
58.3412,12
58.3784,10
58.4156,14
58.4528,9
58.4899,3
58.5271,12
58.5643,13
58.6014,2
58.6386,10
58.6758,10
58.713,9
58.7501,10
58.7873,12
58.8245,7
58.8616,13
58.89882,14
58.936,12
58.9732,10
59.0103,11
59.0475,21
59.0847,32
59.1218,84
59.159,124
59.1962,93
59.2334,77
59.2705,68
59.3077,86
59.3449,92
59.3821,79
59.4192,36
59.4564,16
59.4936,17
59.5307,7
59.5679,10
59.6051,12
59.6423,12
59.6794,6
59.7166,9
59.7538,13
59.7909,11
59.82811,3
59.8653,12
59.9025,10
59.9396,7
59.9768,7
60.014,8
60.0326,7