File: xrd_example_data_files/ZrP_1.csv
'y-axis saved as y
'x,ML_Wallace_17122019_1_NN_1_ZrP_Crucible_12x16_14x161of2Crucibles_BlackPowder_5-60_4min_BkgSubtracted.raw
5,-23.0651
5.03717,-32.9942
5.07434,13.5724
5.11151,11.1429
5.14869,13.7173
5.185858,-13.1443
5.22303,4.55817
5.2602,45.2645
5.29737,35.9746
5.33454,30.6887
5.371716,26.4066
5.40889,9.12836
5.44606,20.854
5.48323,-19.4165
5.5204,12.5555
5.557574,5.53134
5.59475,-6.48895
5.63192,34.4946
5.66909,21.4821
5.70626,12.4734
5.743432,-2.53146
5.7806,2.46759
5.81778,14.47052
5.85495,29.4773
5.89212,7.48795
5.92929,-0.497528
5.96646,7.52087
6.00363,17.5431
6.0408,8.56924
6.07798,42.5992
6.115148,13.6331
6.15232,12.6709
6.18949,37.7125
6.22666,-4.24207
6.26383,0.807281
6.301006,5.86047
6.33818,-6.08243
6.37535,-18.0215
6.41252,38.0433
6.44969,-31.888
6.486864,5.18457
6.52404,16.261
6.56121,27.3413
6.59838,9.42543
6.63555,22.5135
6.672722,34.6053
6.70989,37.7011
6.74707,7.80074
6.78424,-6.09576
6.82141,13.0116
6.85858,0.122849
6.89575,14.238
6.93292,27.3569
6.97009,24.4798
7.00727,43.6065
7.044438,28.7371
7.08161,28.8715
7.11878,-17.9902
7.15595,5.82193
7.19312,12.6379
7.230296,-13.5423
7.26747,7.28139
7.30464,24.1089
7.34181,18.9404
7.37898,44.7757
7.416154,16.6148
7.45333,1.45789
7.4905,21.3048
7.52767,-3.84445
7.56484,-1.98981
7.602012,4.8687
7.63918,4.73108
7.67636,9.59732
7.71353,-11.5326
7.7507,19.6249
7.78787,21.7862
7.82504,-11.0487
7.86221,0.120346
7.89938,1.29326
7.93656,13.47
7.973728,-11.3493
8.0109,-18.1648
8.04807,-6.97646
8.08524,2.21579
8.12241,2.4119
8.159586,-1.65622
8.19676,-16.9886
8.23393,1.27325
8.2711,13.5389
8.30827,-5.19153
8.345444,24.0819
8.38262,7.35918
8.41979,-2.35968
8.45696,-9.07466
8.49413,16.2142
8.531302,-2.49301
8.56847,8.80361
8.60565,-6.8959
8.64282,-4.59153
8.67999,1.7167
8.71716,8.0288
8.75433,-6.65524
8.7915,-33.3354
8.82867,9.98831
8.86585,-2.68411
8.903018,20.6473
8.94019,10.9826
8.97736,8.32182
9.01453,-17.3351
9.0517,-12.9882
9.088876,-5.86558
9.12605,25.2609
9.16322,12.3913
9.20039,2.52554
9.23756,-14.3364
9.274734,-1.19438
9.31191,11.9515
9.34908,6.10118
9.38625,-4.74524
9.42342,-7.58778
9.460592,28.5735
9.49776,6.73872
9.53494,19.9078
9.57211,10.0807
9.60928,11.2575
9.64645,17.4382
9.68362,6.6227
9.72079,-5.1889
9.75796,9.00336
9.79514,13.1995
9.832308,8.39951
9.86948,41.6034
9.90665,14.8111
9.94382,2.02274
9.98099,17.2382
10.0182,-4.54243
10.0553,17.6808
10.0925,-13.0921
10.1297,9.13883
10.1669,5.37366
10.204,17.6123
10.2412,5.8549
10.2784,11.1013
10.3155,9.35163
10.3527,22.6058
10.3899,26.8638
10.4271,11.1257
10.4642,12.39151
10.5014,21.6612
10.5386,17.9347
10.57574,28.212
10.6129,10.4933
10.6501,12.7784
10.6873,19.0674
10.7244,-3.63976
10.7616,-0.34304
10.7988,-8.04245
10.8359,15.262
10.8731,23.5703
10.9103,5.88253
10.9475,2.19859
10.9846,21.5185
11.0218,11.8423
11.059,20.17
11.0961,8.50154
11.1333,3.83694
11.1705,1.17622
11.2077,23.5194
11.2448,-9.13362
11.282,8.21726
11.3192,-8.42799
11.3563,-11.0694
11.3935,23.2931
11.4307,12.6595
11.4679,8.0297
11.50503,23.4038
11.5422,16.7818
11.5794,9.16358
11.6165,22.5493
11.6537,7.93885
11.6909,13.3323
11.7281,28.7296
11.7652,9.13077
11.8024,20.5358
11.8396,2.94472
11.8767,15.3575
11.9139,8.77415
11.9511,18.1947
11.9883,-0.380951
12.0254,6.0473
12.0626,3.47942
12.0998,29.9154
12.1369,9.35527
12.1741,19.799
12.2113,8.2466
12.2485,16.6981
12.2856,-0.846603
12.3228,7.61259
12.36,13.0757
12.3971,27.5426
12.43432,-10.9866
12.4715,-4.96747
12.5087,22.0555
12.5458,11.0824
12.583,7.11309
12.6202,14.1477
12.6573,16.1861
12.6945,-2.77153
12.7317,28.2747
12.7689,2.32473
12.806,15.3787
12.8432,14.4365
12.8804,3.49813
12.9176,23.5637
12.9547,14.6331
12.9919,7.70635
13.0291,8.78349
13.0662,21.8645
13.1034,-1.05061
13.1406,2.03814
13.1778,4.13076
13.2149,13.2272
13.2521,0.327599
13.2893,-2.56818
13.3264,5.53992
13.36361,13.6519
13.4008,-1.23229
13.438,3.88741
13.4751,3.01098
13.5123,12.1384
13.5495,2.26971
13.5866,0.404892
13.6238,2.54393
13.661,1.68684
13.6982,7.83362
13.7353,-2.01573
13.7725,13.1388
13.8097,15.2972
13.8468,17.4594
13.884,10.6255
13.9212,0.79554
13.9584,9.9694
13.9955,3.14713
14.0327,-14.6713
14.0699,29.5142
14.107,24.7035
14.1442,21.8967
14.1814,16.0938
14.2186,37.2947
14.2557,7.49954
14.2929,-0.291786
14.3301,9.92076
14.3672,0.137177
14.4044,22.35746
14.4416,5.58161
14.4788,16.8096
14.5159,5.04152
14.5531,-5.72272
14.5903,22.5169
14.6274,6.76039
14.6646,-8.99224
14.7018,10.259
14.739,-9.48592
14.7761,10.6002
14.8133,6.69013
14.8505,26.784
14.8876,6.88165
14.9248,10.9832
14.962,-2.91135
14.9992,-7.80205
15.0363,27.3111
15.0735,4.42816
15.1107,5.54907
15.1478,12.6738
15.185,-7.19751
15.22219,-1.06499
15.2594,1.07139
15.2965,19.2116
15.3337,8.35576
15.3709,3.50375
15.408,1.6556
15.4452,17.8113
15.4824,13.9709
15.5196,-5.86562
15.5567,12.3017
15.5939,5.47291
15.6311,2.64798
15.6682,-5.17309
15.7054,19.0097
15.7426,8.1964
15.7798,-0.613068
15.8169,2.58134
15.8541,-5.22038
15.8913,6.98177
15.9285,10.1878
15.9656,-8.60233
16.0028,2.40501
16.04,-3.58378
16.0771,7.4313
16.1143,4.45024
16.15148,-1.52695
16.1887,-0.500259
16.2258,1.50292
16.263,23.4826
16.3002,8.46617
16.3373,6.4536
16.3745,7.44489
16.4117,0.440056
16.4489,12.4391
16.486,-3.55801
16.5232,3.44876
16.5604,8.4594
16.5975,14.4739
16.6347,-5.50771
16.6719,-17.4855
16.7091,7.5126
16.7462,-16.4855
16.7834,9.5222
16.8206,0.533737
16.8577,12.5491
16.8949,2.56843
16.9321,4.59157
16.9693,0.618584
17.0064,-2.35053
17.0436,7.68422
17.08077,17.7228
17.1179,5.76533
17.1551,5.81169
17.1923,12.8619
17.2295,-1.083992
17.2666,6.97398
17.3038,3.0358
17.341,6.10151
17.3781,5.17107
17.4153,-2.75549
17.4525,2.32182
17.4897,14.403
17.5268,5.48804
17.564,10.577
17.6012,5.66973
17.6383,29.7664
17.6755,17.8669
17.7127,6.97128
17.7499,16.0795
17.787,17.1917
17.8242,6.30766
17.8614,14.4275
17.8985,12.5512
17.9357,-11.3212
17.9729,16.8103
18.01006,0.945648
18.0472,-0.0419464
18.0844,-4.15247
18.1216,4.74087
18.1587,11.6381
18.1959,-1.46084
18.2331,5.44411
18.2703,18.3529
18.3074,5.26561
18.3446,-7.81784
18.3818,-6.89742
18.4189,5.02687
18.4561,0.955032
18.4933,13.8871
18.5305,-2.17704
18.5676,-3.23728
18.6048,8.70635
18.642,2.65385
18.6791,10.6052
18.7163,2.56047
18.7535,8.51958
18.7907,3.48255
18.8278,17.4494
18.865,5.42011
18.9022,-4.60531
18.93935,8.37315
18.9765,-6.64454
19.0137,8.34165
19.0509,-1.66829
19.088,3.32563
19.1252,6.32343
19.1624,10.3251
19.1996,11.3306
19.2367,16.34
19.2739,-2.64671
19.3111,7.37042
19.3482,18.3914
19.3854,-1.58369
19.4226,-4.55495
19.4598,15.4777
19.4969,1.51414
19.5341,37.5545
19.5713,13.5987
19.6084,25.6468
19.6456,4.69875
19.6828,4.75457
19.72,-6.18575
19.7571,6.87782
19.7943,10.9452
19.8315,2.01654
19.86864,6.09171
19.9058,5.17075
19.943,-4.74635
19.9802,5.34042
20.0173,15.4311
20.0545,8.52557
20.0917,7.62395
20.1288,13.7262
20.166,1.83231
20.2032,10.9423
20.2404,16.0561
20.2775,11.1739
20.3147,1.29545
20.3519,-3.57909
20.389,12.5502
20.4262,4.68343
20.4634,0.820496
20.5006,13.9614
20.5377,5.10622
20.5749,1.2549
20.6121,11.4074
20.6492,28.5638
20.6864,17.7241
20.7236,-0.11174
20.7608,-2.94373
20.79793,-6.77185
20.8351,10.4039
20.8723,10.5835
20.9094,8.76701
20.9466,22.9544
20.9838,9.14558
21.021,5.34068
21.0581,15.5396
21.0953,15.7425
21.1325,20.9492
21.1696,11.1597
21.2068,20.3742
21.244,18.5925
21.2812,-8.18536
21.3183,5.56069
21.3555,18.3106
21.3927,23.0644
21.4298,6.82204
21.467,16.5836
21.5042,7.34895
21.5414,9.1182
21.5785,19.8913
21.6157,16.6683
21.6529,20.4492
21.69,19.2339
21.72722,18.0225
21.7644,6.81499
21.8016,11.6113
21.8387,22.4115
21.8759,27.2156
21.9131,0.0235519
21.9502,17.8354
21.9874,13.651
22.0246,1.47059
22.0618,16.294
22.0989,11.1213
22.1361,8.95245
22.1733,8.78748
22.2105,9.62637
22.2476,-4.53088
22.2848,12.3158
22.322,20.1663
22.3591,9.02062
22.3963,17.8789
22.4335,9.74096
22.4707,10.6069
22.5078,6.47677
22.545,0.350479
22.5822,-0.771942
22.6193,16.1095
22.65651,16.9948
22.6937,11.884
22.7309,2.77706
22.768,2.67398
22.8052,-1.42523
22.8424,-3.52058
22.8795,15.388
22.9167,-4.69965
22.9539,-0.783386
22.9911,-8.86325
23.0282,-8.93925
23.0654,10.9886
23.1026,4.92036
23.1397,11.856
23.1769,8.79544
23.2141,2.73878
23.2513,8.686
23.2884,9.63708
23.3256,14.592
23.3628,-3.44915
23.3999,-5.48647
23.4371,12.4801
23.4743,10.4505
23.5115,10.4248
23.5486,-2.59703
23.5858,11.385
23.623,4.3709
23.6601,22.3607
23.6973,-6.6457
23.7345,4.35181
23.7717,-1.64682
23.8088,-3.64158
23.846,-1.63247
23.8832,1.38051
23.9203,6.39736
23.9575,-0.581924
23.9947,35.4427
24.0319,12.4711
24.069,21.5034
24.1062,24.5396
24.1434,11.5797
24.1805,19.6236
24.2177,13.6714
24.2549,22.7231
24.2921,21.7786
24.3292,39.838
24.3664,2.90128
24.4036,19.9684
24.4407,21.0394
24.4779,14.1143
24.51509,17.1931
24.5523,20.2757
24.5894,-0.6378479
24.6266,23.4525
24.6638,8.54672
24.7009,8.64481
24.7381,6.74677
24.7753,-11.1474
24.8125,1.96229
24.8496,-6.92415
24.8868,-5.80672
24.924,8.31458
24.9611,4.43975
24.9983,19.5688
25.0355,2.70169
25.0727,4.83846
25.1098,24.9791
25.147,-0.876381
25.1842,15.272
25.2214,-4.57575
25.2585,-1.41963
25.2957,18.7403
25.3329,9.90421
25.37,1.07193
25.4072,21.2435
25.44438,14.419
25.4816,-0.401688
25.5187,0.781509
25.5559,11.9686
25.5931,2.15951
25.6302,8.35431
25.6674,-6.44701
25.7046,6.75552
25.7418,2.96194
25.7789,8.17221
25.8161,-3.61364
25.8533,10.6044
25.8904,-3.17374
25.9276,-0.94799
25.9648,3.28163
26.002,-17.4849
26.0391,-3.56602
26.0763,24.3567
26.1135,11.2833
26.1506,24.2138
26.1878,9.1481
26.225,1.0863
26.2622,19.0284
26.2993,8.97432
26.3365,9.92413
26.37367,17.8778
26.4108,-4.16465
26.448,8.79676
26.4852,-5.23795
26.5224,5.73119
26.5595,1.704216
26.5967,5.68111
26.6339,-12.3381
26.671,1.64648
26.7082,14.635
26.7454,14.6273
26.7826,23.6236
26.8197,-7.37633
26.8569,5.62764
26.8941,4.63548
26.9312,6.64719
26.9684,-8.33724
27.0056,-5.31779
27.0428,-3.37607
27.0799,2.48795
27.1171,1.35584
27.1543,7.2276
27.1914,-0.896767
27.2286,17.9827
27.2658,12.8661
27.30296,9.75333
27.3401,-3.35558
27.3773,10.5394
27.4145,-0.561768
27.4516,-10.6591
27.4888,9.24751
27.526,-1.84204
27.5632,12.0723
27.6003,20.9905
27.6375,17.9125
27.6747,1.83842
27.7118,15.7682
27.749,13.7019
27.7862,14.6394
27.8234,47.5808
27.8605,101.526
27.8977,199.475
27.9349,201.428
27.972,204.385
28.0092,157.346
28.0464,129.31
28.0836,101.279
28.1207,102.251
28.1579,104.227
28.1951,88.2075
28.23225,131.191
28.2694,80.1793
28.3066,96.1709
28.3438,97.1665
28.3809,104.166
28.4181,144.169
28.4553,172.176
28.4925,180.187
28.5296,176.202
28.5668,118.221
28.604,87.2437
28.6411,87.2702
28.6783,65.30056
28.7155,68.3348
28.7527,104.373
28.7898,247.415
28.827,365.461
28.8642,344.51
28.9013,317.564
28.9385,247.621
28.9757,161.6828
29.0129,106.748
29.05,57.817
29.0872,43.89
29.1244,25.9668
29.16154,27.0474
29.1987,19.132
29.2359,-0.77964
29.2731,21.3126
29.3102,15.4088
29.3474,4.50877
29.3846,8.61265
29.4217,-9.27961
29.4589,6.832
29.4961,-8.05252
29.5333,1.06683
29.5704,8.19005
29.6076,23.3171
29.6448,4.44809
29.6819,-3.41501
29.7191,8.72784
29.7563,0.874557
29.7935,-6.97485
29.8306,-0.820396
29.8678,2.33793
29.905,15.5001
29.9421,15.6662
29.9793,13.8361
30.0165,7.00992
30.0537,14.1876
30.09083,11.3691
30.128,16.5545
30.1652,-8.2562
30.2023,32.9369
30.2395,15.134
30.2767,39.3348
30.3139,38.5396
30.351,32.7482
30.3882,40.9607
30.4254,25.177
30.4625,24.3973
30.4997,26.6214
30.5369,15.8493
30.5741,-1.91886
30.6112,12.3168
30.6484,15.5564
30.6856,-4.20016
30.7227,23.0471
30.7599,6.29831
30.7971,-9.44665
30.8343,5.81226
30.8714,8.07504
30.9086,5.34168
30.9458,6.6122
30.9829,20.8866
31.02012,-3.83517
31.0573,4.44695
31.0945,8.73294
31.1316,1.0228
31.1688,4.31653
31.206,5.61412
31.2431,8.91559
31.2803,22.2209
31.3175,34.5301
31.3547,60.8432
31.3918,90.1601
31.429,129.481
31.4662,130.806
31.5034,111.134
31.5405,129.467
31.5777,56.8028
31.6149,57.143
31.652,50.487
31.6892,25.8349
31.7264,22.1867
31.7636,26.5423
31.8007,19.9018
31.8379,6.26513
31.8751,12.6324
31.9122,12.0035
31.94941,11.3784
31.9866,24.7573
32.0238,12.14
32.0609,12.5265
32.0981,-3.08302
32.1353,17.3113
32.1724,0.709465
32.2096,8.11151
32.2468,-8.48257
32.284,9.44407
32.3211,4.37458
32.3583,3.30896
32.3955,1.24721
32.4326,10.1893
32.4698,14.1353
32.507,8.08517
32.5442,20.0389
32.5813,18.9965
32.6185,-8.04205
32.6557,7.92327
32.6928,3.89247
32.73,13.8655
32.7672,0.842472
32.8044,-1.17672
32.8415,-5.19205
32.8787,5.79649
32.9159,-7.2111
32.953,12.7551
32.9902,0.725166
33.0274,2.6991
33.0646,6.67691
33.1017,10.6586
33.1389,9.64412
33.1761,1.63354
33.2132,-1.37318
33.2504,14.624
33.2876,8.62498
33.3248,3.62987
33.3619,7.63862
33.3991,1.65125
33.4363,10.6677
33.4734,-1.3119
33.5106,-2.28768
33.5478,-2.25958
33.585,4.77238
33.6221,6.80822
33.6593,1.84792
33.6965,-6.10851
33.7336,20.9389
33.7708,2.99025
33.80799,-1.98546
33.8452,-11.9882
33.8823,2.01297
33.9195,5.01799
33.9567,21.0269
33.9938,22.0396
34.031,14.0563
34.0682,14.0767
34.1054,11.1011
34.1425,25.1293
34.1797,32.1614
34.2169,14.1974
34.254,17.2372
34.2912,16.2809
34.3284,22.3285
34.3656,13.38
34.4027,24.4353
34.4399,11.4944
34.4771,10.5575
34.5143,16.6244
34.5514,13.6952
34.5886,21.7699
34.6258,10.8484
34.6629,9.93076
34.7001,9.01702
34.73728,12.1072
34.7745,14.2011
34.8116,20.299
34.8488,4.40075
34.886,7.50635
34.9231,24.6158
34.9603,20.7292
34.9975,24.8464
35.0347,26.9674
35.0718,26.0924
35.109,33.2212
35.1462,73.3539
35.1833,75.4904
35.2205,118.631
35.2577,186.775
35.2949,415.923
35.332,782.075
35.3692,882.231
35.4064,774.391
35.4435,731.555
35.4807,558.722
35.5179,344.893
35.5551,233.069
35.5922,132.248
35.6294,81.4308
35.66657,55.6176
35.7037,34.8083
35.7409,27.0029
35.7781,26.2014
35.8153,36.4037
35.8524,10.6099
35.8896,5.81993
35.9268,23.0339
35.9639,9.25165
36.0011,-0.526691
36.0383,14.6988
36.0755,11.9282
36.1126,4.1615
36.1498,4.39863
36.187,-3.47808
36.2241,-1.46864
36.2613,4.54466
36.2985,5.56184
36.3357,0.582882
36.3728,9.60779
36.41,9.63657
36.4472,-6.33078
36.4843,12.7057
36.5215,-4.25387
36.5587,8.79038
36.59586,10.8385
36.633,7.8905
36.6702,4.94636
36.7074,7.00609
36.7445,-0.930313
36.7817,10.1372
36.8189,2.20849
36.8561,2.2837
36.8932,4.36277
36.9304,6.44571
36.9676,1.53252
37.0047,-0.376804
37.0419,-3.28226
37.0791,-1.18384
37.1163,15.9184
37.1534,-4.97541
37.1906,0.134617
37.2278,4.2485
37.2649,4.36626
37.3021,2.48789
37.3393,12.6134
37.3765,-4.25725
37.4136,-3.12402
37.4508,6.01309
37.488,4.15406
37.52515,2.2989
37.5623,8.4476
37.5995,19.6002
37.6367,-4.24338
37.6738,-11.0831
37.711,-0.91888
37.7482,1.24917
37.7854,10.4211
37.8225,-6.40313
37.8597,6.68064
37.8969,-9.23172
37.934,5.85979
37.9712,10.9552
38.0084,6.05441
38.0456,2.15752
38.0827,4.2645
38.1199,3.37535
38.1571,-1.50993
38.1942,16.6087
38.2314,10.7311
38.2686,-2.14257
38.3058,13.9876
38.3429,7.12169
38.3801,6.25961
38.4173,-5.59859
38.45444,-11.4529
38.4916,9.69661
38.5288,3.85002
38.566,-8.99271
38.6031,3.16843
38.6403,12.3334
38.6775,6.50232
38.7146,7.67507
38.7518,15.8517
38.789,3.03217
38.8262,1.21652
38.8633,24.4047
38.9005,18.5968
38.9377,9.79279
38.9748,3.99261
39.012,12.1963
39.0492,-2.59612
39.0864,0.615311
39.1235,8.83061
39.1607,15.0498
39.1979,7.27282
39.235,-5.50027
39.2722,16.7305
39.3094,-2.03485
39.3466,-7.00603
39.38373,4.81699
39.4209,2.64387
39.4581,7.47461
39.4952,10.3092
39.5324,-0.852283
39.5696,-1.00993
39.6068,8.8363
39.6439,9.68639
39.6811,11.5403
39.7183,12.3982
39.7554,-2.74013
39.7926,-3.87456
39.8298,23.9949
39.867,-4.13182
39.9041,8.74535
39.9413,12.6264
39.9785,7.5113
40.0156,17.4001
40.0528,20.2927
40.09,13.1892
40.1272,19.0896
40.1643,36.9939
40.2015,46.902
40.2387,117.814
40.2758,192.73
40.31302,239.65
40.3502,190.573
40.3874,198.501
40.4245,163.432
40.4617,110.367
40.4989,93.3062
40.536,44.2492
40.5732,43.196
40.6104,32.1467
40.6476,14.1012
40.6847,26.0596
40.7219,22.0219
40.7591,13.988
40.7963,20.9581
40.8334,19.9319
40.8706,20.9097
40.9078,14.8913
40.9449,12.8768
40.9821,0.866177
41.0193,10.8594
41.0565,8.85651
41.0936,15.8575
41.1308,18.8623
41.168,-4.12899
41.2051,5.88359
41.24231,2.90003
41.2795,5.92034
41.3167,2.94452
41.3538,-2.02744
41.391,0.00447845
41.4282,1.04026
41.4653,11.0799
41.5025,10.1234
41.5397,-9.82917
41.5769,5.22209
41.614,1.27722
41.6512,11.3362
41.6884,3.39908
41.7255,-0.534187
41.7627,6.53641
41.7999,11.6109
41.8371,15.6892
41.8742,-10.2286
41.9114,4.85751
41.9486,14.9475
41.9857,4.04126
42.0229,14.1389
42.0601,6.2405
42.0973,10.3459
42.1344,-0.544796
42.1716,18.5684
42.2088,2.68539
42.2459,-7.19372
42.2831,0.931046
42.3203,1.05967
42.3575,-4.807827
42.3946,7.32854
42.4318,0.468781
42.469,7.61288
42.5061,-9.23914
42.5433,1.9127
42.5805,0.0684128
42.6177,-0.772007
42.6548,3.39144
42.692,19.5588
42.7292,11.7299
42.7663,9.905
42.8035,-5.91608
42.8407,9.06361
42.8779,13.0472
42.915,6.03461
42.9522,8.02591
42.9894,-9.97893
43.0265,11.9838
43.0637,17.9503
43.10089,-6.079216
43.1381,-3.10491
43.1752,5.87327
43.2124,6.85531
43.2496,2.84122
43.2867,16.831
43.3239,10.8247
43.3611,20.8222
43.3983,12.8236
43.4354,13.8288
43.4726,8.83795
43.5098,8.85094
43.5469,14.8678
43.5841,6.88853
43.6213,-4.08686
43.6585,-0.0583954
43.6956,-5.02606
43.7328,3.01014
43.77,-1.94978
43.8072,4.09416
43.8443,-0.858028
43.8815,6.19365
43.9187,-2.7508
43.9558,17.3086
43.993,4.3719
44.03018,-6.56094
44.0674,-1.48992
44.1045,6.58497
44.1417,-1.33627
44.1789,2.74636
44.216,7.83286
44.2532,-0.0767784
44.2904,17.0175
44.3276,-8.88444
44.3647,12.2175
44.4019,17.3234
44.4391,16.4331
44.4762,8.54666
44.5134,6.6641
44.5506,8.78542
44.5878,-4.0894
44.6249,3.03965
44.6621,16.1726
44.6993,5.30936
44.7364,13.45
44.7736,-12.5427
44.8108,6.33122
44.848,3.20901
44.8851,5.09066
44.9223,-1.02382
44.95947,5.86557
44.9966,3.75883
45.0338,1.65596
45.071,4.55696
45.1082,6.46182
45.1453,4.37056
45.1825,11.2832
45.2197,-3.80037
45.2568,8.11997
45.294,21.0442
45.3312,2.97225
45.3684,-4.09581
45.4055,11.84
45.4427,24.7797
45.4799,2.72324
45.517,-2.32934
45.5542,0.621948
45.5914,11.5771
45.6286,10.5361
45.6657,3.49902
45.7029,-0.534214
45.7401,17.4364
45.7772,10.4109
45.8144,16.3893
45.8516,22.3715
45.88876,28.3576
45.9259,53.3476
45.9631,129.341
46.0003,169.339
46.0374,145.341
46.0746,115.346
46.1118,135.355
46.149,97.3687
46.1861,66.3857
46.2233,36.4067
46.2605,28.4315
46.2976,15.4601
46.3348,19.4926
46.372,6.52904
46.4092,-0.430695
46.4463,11.6134
46.4835,0.661446
46.5207,13.7133
46.5578,9.76906
46.595,-5.17133
46.6322,6.89214
46.6694,3.95949
46.7065,6.0307
46.7437,-4.89421
46.7809,8.18474
46.81805,1.26756
46.8552,-3.64575
46.8924,6.44481
46.9296,-4.46077
46.9667,5.63753
47.0039,-8.26031
47.0411,3.84572
47.0783,-3.04438
47.1154,0.0693932
47.1526,2.18703
47.1898,12.3085
47.2269,-0.56609
47.2641,8.56316
47.3013,-5.30373
47.3385,-10.1668
47.3756,3.9741
47.4128,11.1188
47.45,-3.7326
47.4871,1.39278
47.5243,1.49494
47.5615,7.60096
47.5987,8.71086
47.6358,5.82463
47.673,1.94226
47.7102,-7.93624
47.74734,-5.81086
47.7845,4.31837
47.8217,9.45148
47.8589,6.58846
47.896,-1.27069
47.9332,8.87402
47.9704,-12.9774
48.0075,7.77234
48.0447,11.5259
48.0819,16.2834
48.1191,18.0447
48.1562,8.80995
48.1934,-0.420975
48.2306,-0.648029
48.2677,3.12878
48.3049,0.909466
48.3421,5.69402
48.3793,5.48243
48.4164,6.27472
48.4536,-1.92912
48.4908,2.8709
48.5279,9.6748
48.5651,-1.51744
48.6023,10.2942
48.6395,-0.890312
48.67663,10.9291
48.7138,-3.24771
48.751,-4.4206
48.7881,-5.58963
48.8253,3.24521
48.8625,-5.91608
48.8997,4.94683
48.9368,9.8136
48.974,-2.31576
49.0112,14.5588
49.0483,1.43713
49.0855,13.3194
49.1227,9.2055
49.1599,23.0955
49.197,25.9893
49.2342,46.8871
49.2714,58.7887
49.3085,112.694
49.3457,202.603
49.3829,320.517
49.4201,349.434
49.4572,347.355
49.4944,282.279
49.5316,273.208
49.5687,219.141
49.60592,179.077
49.6431,104.017
49.6803,49.9615
49.7174,38.9095
49.7546,30.8614
49.7918,35.8171
49.8289,19.7768
49.8661,14.7402
49.9033,8.70761
49.9405,5.67883
49.9776,6.65393
50.0148,24.6329
50.052,20.6157
50.0892,18.6024
50.1263,24.593
50.1635,-0.412567
50.2007,35.5857
50.2378,49.5879
50.275,38.594
50.3122,35.6039
50.3494,22.6177
50.3865,24.6353
50.4237,28.6568
50.4609,29.6822
50.498,26.7115
50.53521,21.7446
50.5724,25.7816
50.6096,22.8224
50.6467,21.8672
50.6839,15.9158
50.7211,15.9682
50.7582,19.0246
50.7954,11.0848
50.8326,-3.85115
50.8698,16.2168
50.9069,18.2886
50.9441,5.36428
50.9813,2.44382
51.0184,12.5272
51.0556,-3.38548
51.0928,-1.29432
51.13,4.8007
51.1671,1.89959
51.2043,17.0023
51.2415,15.109
51.2786,-8.78053
51.3158,1.33384
51.353,3.45207
51.3902,4.57417
51.4273,-1.29985
51.4645,8.82998
51.5017,7.96369
51.5388,7.10127
51.576,2.24271
51.6132,2.38803
51.6504,-1.46279
51.6875,-1.30974
51.7247,6.84718
51.7619,4.00797
51.799,1.17262
51.8362,3.34115
51.8734,16.5135
51.9106,7.6898
51.9477,5.86993
51.9849,-2.94607
52.0221,4.2418
52.0592,8.43354
52.0964,14.6291
52.1336,12.8286
52.1708,11.032
52.2079,8.23917
52.2451,25.4502
52.2823,38.6652
52.3194,54.884
52.3566,41.1067
52.39379,35.3333
52.431,36.5637
52.4681,24.798
52.5053,25.0361
52.5425,12.2782
52.5796,9.52406
52.6168,14.7738
52.654,2.02745
52.6912,4.28496
52.7283,8.54633
52.7655,13.8116
52.8027,-0.919323
52.8398,-4.64634
52.877,-1.3695
52.9142,5.91122
52.9514,5.1958
52.9885,1.48425
53.0257,8.77657
53.0629,2.07276
53.1001,-5.62718
53.1372,6.42547
53.1744,4.23072
53.2116,6.03984
53.2487,1.85283
53.2859,23.6697
53.32308,5.49041
53.3603,11.315
53.3974,17.1435
53.4346,10.9758
53.4718,17.812
53.5089,10.6521
53.5461,-1.504
53.5833,2.34381
53.6205,1.19548
53.6576,7.05103
53.6948,4.91044
53.732,0.773716
53.7691,7.64087
53.8063,9.51188
53.8435,12.3868
53.8807,-0.734478
53.9178,16.1481
53.955,-1.96536
53.9922,15.925
54.0293,11.8192
54.0665,12.7173
54.1037,12.6193
54.1409,18.5251
54.178,10.4348
54.2152,6.3484
54.25237,-4.73416
54.2895,-4.81285
54.3267,6.11232
54.3639,7.04137
54.4011,5.97429
54.4382,5.91107
54.4754,2.85172
54.5126,0.796238
54.5497,2.74463
54.5869,1.69689
54.6241,-4.34699
54.6613,10.613
54.6984,2.57687
54.7356,-3.4554
54.7728,7.5162
54.8099,6.49167
54.8471,-0.528988
54.8843,1.454216
54.9215,0.441292
54.9586,-5.56776
54.9958,5.27308
55.033,-0.882217
55.0701,3.96636
55.1073,5.8188
55.1445,4.67511
55.18166,1.5353
55.2188,6.39935
55.256,9.26727
55.2932,-5.86095
55.3303,23.0147
55.3675,5.89423
55.4047,9.77763
55.4419,11.6649
55.479,12.556
55.5162,17.451
55.5534,15.3499
55.5905,3.25262
55.6277,7.15923
55.6649,-3.9303
55.7021,12.984
55.7392,8.90225
55.7764,19.8243
55.8136,-4.24972
55.8507,7.68009
55.8879,4.61378
55.9251,-4.44867
55.9623,0.492756
55.9994,9.43805
56.0366,-3.6128
56.0738,9.34023
56.11095,10.2971
56.1481,-4.74211
56.1853,-7.77747
56.2225,2.19103
56.2596,3.1634
56.2968,-0.860359
56.334,3.11975
56.3712,6.10373
56.4083,-5.90843
56.4455,0.0832863
56.4827,1.07887
56.5198,4.07832
56.557,3.08164
56.5942,5.08883
56.6314,-0.900116
56.6685,6.11481
56.7057,0.133602
56.7429,0.156265
56.78,-1.8238
56.8172,-0.806587
56.8544,8.21449
56.8916,0.239437
56.9287,-4.73175
56.9659,-3.69906
57.0031,-7.66251
57.04024,-2.62209
57.0774,2.4222
57.1146,1.47036
57.1518,2.52239
57.1889,10.5783
57.2261,4.63805
57.2633,1.70168
57.3004,13.7692
57.3376,12.8406
57.3748,24.9158
57.412,11.9949
57.4491,14.0779
57.4863,1.16472
57.5235,-5.74456
57.5606,4.99627
57.5978,12.741
57.635,14.4895
57.6722,18.242
57.7093,35.9983
57.7465,20.7584
57.7837,28.5225
57.8208,16.2904
57.858,35.0622
57.8952,32.8378
57.9324,33.6173
57.96953,65.4007
58.0067,115.188
58.0439,92.9791
58.081,72.7741
58.1182,85.5729
58.1554,107.376
58.1926,109.182
58.2297,74.9927
58.2669,71.8071
58.3041,52.6253
58.3412,43.4473
58.3784,41.2733
58.4156,30.1031
58.4528,13.9368
58.4899,14.7743
58.5271,11.6157
58.5643,4.46099
58.6014,12.3101
58.6386,-4.83684
58.6758,-7.97995
58.713,1.71291
58.7501,-6.59036
58.7873,6.11024
58.8245,-0.185287
58.8616,31.5231
58.89882,35.2353
58.936,64.9513
58.9732,73.6713
59.0103,44.3951
59.0475,69.1228
59.0847,87.8543
59.1218,117.59
59.159,63.329
59.1962,91.0722
59.2334,55.8192
59.2705,43.5701
59.3077,63.3249
59.3449,22.0835
59.3821,25.846
59.4192,2.61235
59.4564,3.38259
59.4936,-4.84331
59.5307,5.93467
59.5679,-0.283493
59.6051,-6.49778
59.6423,-6.7082
59.6794,0.0515594
59.7166,2.81519
59.7538,-4.41731
59.7909,14.3541
59.82811,-5.8707
59.8653,6.44119
59.9025,-5.71027
59.9396,-5.85786
59.9768,8.99842
60.014,-7.14143
60.0326,-7.87401