File: xrd_example_data_files/ZrP_3.csv
'y-axis saved as y
'x,ML_Wallace_04122019_1_NN_1_ZrP_CrucibleRetest_5-60_4min_BkgSubtracted.raw
5,-22.6053
5.03717,-12.9587
5.07434,0.0258179
5.11151,18.0132
5.14869,27.00354
5.185858,-17.0032
5.22303,11.9929
5.2602,14.9919
5.29737,36.9937
5.33454,37.9984
5.371716,-20.9939
5.40889,8.80399
5.44606,7.60477
5.48323,-7.3735
5.5204,-0.130798
5.557574,-7.88519
5.59475,-9.63672
5.63192,29.6147
5.66909,-15.1311
5.70626,8.12604
5.743432,13.3861
5.7806,-25.351
5.81778,31.9148
5.85495,10.1835
5.89212,-5.54495
5.92929,-3.27051
5.96646,-18.9932
6.00363,14.005
6.0408,3.0061
6.07798,14.0101
6.115148,17.0169
6.15232,-19.9733
6.18949,25.0393
6.22666,4.05481
6.26383,22.0732
6.301006,15.0945
6.33818,-2.88132
6.37535,4.14572
6.41252,15.1757
6.44969,-13.7915
6.486864,14.2442
6.52404,-5.71719
6.56121,-4.67569
6.59838,14.3687
6.63555,5.41592
6.672722,34.4661
6.70989,11.5191
6.74707,34.575
6.78424,1.63383
6.82141,-14.3045
6.85858,1.76009
6.89575,-12.1725
6.93292,17.8979
6.97009,-5.02887
7.00727,5.00598
7.044438,30.0024
7.08161,1.00179
7.11878,11.004
7.15595,-20.9909
7.19312,2.99333
7.230296,12.9804
7.26747,5.97041
7.30464,-15.0367
7.34181,-4.04097
7.37898,5.95767
7.416154,3.959198
7.45333,1.96361
7.4905,-1.0291
7.52767,3.98109
7.56484,-6.00584
7.602012,-13.9899
7.63918,-14.692
7.67636,-6.39125
7.71353,-6.08762
7.7507,-1.78108
7.78787,-12.4717
7.82504,5.84062
7.86221,0.155807
7.89938,12.4739
7.93656,14.7948
7.973728,-12.8813
8.0109,18.4454
8.04807,-11.225
8.08524,-8.16956
8.12241,20.8542
8.159586,26.8808
8.19676,26.9103
8.23393,0.942719
8.2711,13.978
8.30827,12.0162
8.345444,-13.9428
8.38262,23.1012
8.41979,16.148
8.45696,-10.8023
8.49413,-2.74971
8.531302,17.3058
8.56847,-0.635849
8.60565,15.4254
8.64282,37.4895
8.67999,9.55658
8.71716,13.6265
8.75433,8.6993
8.7915,-1.22502
8.82867,3.85355
8.86585,0.934998
8.903018,38.0193
8.94019,5.10658
8.97736,13.1967
9.01453,-2.71031
9.0517,-15.6144
9.088876,7.48436
9.12605,14.586
9.16322,11.6906
9.20039,-3.20201
9.23756,-8.09169
9.274734,29.0215
9.31191,2.1376
9.34908,26.2566
9.38625,7.37843
9.42342,-4.49683
9.460592,7.63081
9.49776,20.7613
9.53494,14.8947
9.57211,-3.96898
9.60928,-3.8298
9.64645,-13.6877
9.68362,1.45721
9.72079,7.60504
9.75796,15.7558
9.79514,-29.0906
9.832308,11.0659
9.86948,13.2253
9.90665,-15.6125
9.94382,10.5527
9.98099,4.72069
10.0182,15.8916
10.0553,46.0654
10.0925,15.2421
10.1297,-12.5783
10.1669,3.60416
10.204,0.789505
10.2412,10.9778
10.2784,-0.831131
10.3155,14.3629
10.3527,-1.44022
10.3899,7.759552
10.4271,35.9622
10.4642,2.16779
10.5014,13.3762
10.5386,-0.41246
10.57574,8.80176
10.6129,1.01885
10.6501,12.2388
10.6873,22.4617
10.7244,7.68745
10.7616,14.9161
10.7988,-17.8524
10.8359,-4.61797
10.8731,2.61933
10.9103,11.85952
10.9475,5.10259
10.9846,8.34855
11.0218,-10.4026
11.059,19.8491
11.0961,-8.89627
11.1333,2.36123
11.1705,1.62161
11.2077,-7.11511
11.2448,17.151
11.282,5.42009
11.3192,30.692
11.3563,10.9668
11.3935,0.244537
11.4307,6.52512
11.4679,13.8086
11.50503,9.09496
11.5422,-6.6158
11.5794,3.67634
11.6165,8.97135
11.6537,22.2693
11.6909,10.57
11.7281,10.8737
11.7652,-13.8197
11.8024,13.4897
11.8396,7.80206
11.8767,-8.88272
11.9139,5.43539
11.9511,2.75638
11.9883,2.08025
12.0254,3.40701
12.0626,10.7367
12.0998,14.0692
12.1369,2.40462
12.1741,9.74293
12.2113,-1.91589
12.2485,11.4282
12.2856,-8.22484
12.3228,19.125
12.36,18.4777
12.3971,2.83337
12.43432,-1.83961
12.4715,6.45882
12.5087,-28.2399
12.5458,-10.9357
12.583,24.3714
12.6202,3.68138
12.6573,21.9942
12.6945,25.31
12.7317,-9.37139
12.7689,-10.0499
12.806,12.2614
12.8432,2.57558
12.8804,-8.10736
12.9176,-13.7874
12.9547,10.5354
12.9919,0.861122
13.0291,3.18972
13.0662,17.5212
13.1034,-5.14442
13.1406,23.1928
13.1778,-2.46702
13.2149,5.87601
13.2521,10.2219
13.2893,21.5707
13.3264,4.92241
13.36361,7.27699
13.4008,2.63445
13.438,7.99479
13.4751,-22.642
13.5123,5.72414
13.5495,6.09314
13.5866,19.465
13.6238,11.8398
13.661,4.21747
13.6982,0.598015
13.7353,23.9814
13.7725,11.3678
13.8097,18.757
13.8468,27.1491
13.884,-2.45596
13.9212,-6.0581
13.9584,3.34264
13.9955,19.7463
14.0327,-11.8472
14.0699,2.56221
14.107,8.9745
14.1442,13.3897
14.1814,5.80774
14.2186,16.2287
14.2557,10.6525
14.2929,3.07925
14.3301,14.5089
14.3672,10.9414
14.4044,-2.62327
14.4416,6.81499
14.4788,1.25615
14.5159,2.70019
14.5531,30.14711
14.5903,21.5969
14.6274,0.049614
14.6646,-3.4948
14.7018,25.9637
14.739,4.42502
14.7761,17.8893
14.8133,22.3564
14.8505,19.8264
14.8876,0.299286
14.9248,-7.22493
14.962,8.00419
14.9992,-2.01337
15.0363,7.97196
15.0735,0.960182
15.1107,1.95129
15.1478,12.9453
15.185,-8.05785
15.22219,16.9419
15.2594,-4.05544
15.2965,0.950089
15.3337,22.9585
15.3709,-7.03018
15.408,15.984
15.4452,-2.99892
15.4824,14.021
15.5196,7.0439
15.5567,3.06963
15.5939,8.09825
15.6311,0.129761
15.6682,0.164154
15.7054,9.20143
15.7426,-0.758408
15.7798,13.2846
15.8169,11.3306
15.8541,10.3794
15.8913,17.4311
15.9285,8.48571
15.9656,-7.51097
16.0028,-1.55893
16.04,0.396004
16.0771,9.35382
16.1143,25.3145
16.15148,9.27812
16.1887,15.2446
16.2258,-3.78604
16.263,12.1862
16.3002,8.16135
16.3373,0.139366
16.3745,3.12027
16.4117,-2.93619
16.4489,5.96998
16.486,5.87904
16.5232,18.791
16.5604,5.7058
16.5975,20.6235
16.6347,8.54411
16.6719,-11.5324
16.7091,-1.60603
16.7462,5.32322
16.7834,15.2554
16.8206,20.1904
16.8577,40.1283
16.8949,14.0691
16.9321,13.0128
16.9693,9.95937
17.0064,18.9088
17.0436,-0.138832
17.08077,14.8164
17.1179,2.77451
17.1551,14.7355
17.1923,21.6994
17.2295,16.6662
17.2666,0.635834
17.3038,16.6084
17.341,-17.4162
17.3781,21.5621
17.4153,27.5433
17.4525,22.52742
17.4897,23.5144
17.5268,16.5042
17.564,7.497
17.6012,10.49263
17.6383,7.49115
17.6755,-7.50745
17.7127,-0.503151
17.7499,5.50402
17.787,16.5141
17.8242,-7.47297
17.8614,21.5429
17.8985,4.56158
17.9357,-4.41681
17.9729,7.60769
18.01006,11.6351
18.0472,12.6653
18.0844,9.69848
18.1216,10.7345
18.1587,10.7734
18.1959,2.81525
18.2331,15.8599
18.2703,14.9075
18.3074,9.95798
18.3446,-3.98866
18.3818,21.0676
18.4189,2.12669
18.4561,-2.81129
18.4933,4.2536
18.5305,2.32138
18.5676,5.39205
18.6048,34.4656
18.642,18.542
18.6791,10.6214
18.7163,6.70358
18.7535,13.7887
18.7907,18.8767
18.8278,2.96753
18.865,-2.00182
18.9022,13.9686
18.93935,17.9419
18.9765,23.9181
19.0137,-6.10284
19.0509,10.8791
19.088,-1.13602
19.1252,10.8517
19.1624,12.8423
19.1996,9.83584
19.2367,21.8322
19.2739,19.8315
19.3111,16.8337
19.3482,14.8387
19.3854,2.84666
19.4226,6.85748
19.4598,-6.12881
19.4969,12.8878
19.5341,6.90726
19.5713,-3.07037
19.6084,4.95488
19.6456,-9.01698
19.6828,-19.986
19.72,-5.98561
19.7571,14.0176
19.7943,15.0237
19.8315,28.0327
19.86864,0.0446243
19.9058,5.0594
19.943,13.0771
19.9802,9.09761
20.0173,15.121
20.0545,21.1474
20.0917,11.1766
20.1288,23.2086
20.166,2.24363
20.2032,14.2815
20.2404,10.3222
20.2775,-1.63413
20.3147,-0.587608
20.3519,-6.53821
20.389,-15.4859
20.4262,-3.47561
20.4634,9.53758
20.5006,12.5537
20.5377,-13.4274
20.5749,22.5945
20.6121,-1.3808
20.6492,27.6468
20.6864,22.67733
20.7236,7.71072
20.7608,10.747
20.79793,16.7862
20.8351,2.82822
20.8723,28.8732
20.9094,-7.07902
20.9466,27.9717
20.9838,3.02528
21.021,4.08176
21.0581,12.1411
21.0953,16.2034
21.1325,-4.73148
21.1696,8.33654
21.2068,0.407455
21.244,27.4812
21.2812,7.55793
21.3183,7.6375
21.3555,3.71996
21.3927,9.80529
21.4298,16.8935
21.467,5.98463
21.5042,10.0786
21.5414,-6.82449
21.5785,1.13739
21.6157,6.96426
21.6529,4.79401
21.69,25.6267
21.72722,9.46219
21.7644,21.3006
21.8016,15.1419
21.8387,1.98609
21.8759,0.8331604
21.9131,25.6831
21.9502,17.536
21.9874,-3.60831
22.0246,14.2503
22.0618,26.1118
22.0989,6.9762
22.1361,-15.1565
22.1733,3.71364
22.2105,25.5867
22.2476,28.4626
22.2848,9.34143
22.322,2.22314
22.3591,7.10773
22.3963,15.9952
22.4335,27.8856
22.4707,7.77881
22.5078,15.6749
22.545,2.57396
22.5822,10.4759
22.6193,7.38066
22.65651,-1.71166
22.6937,0.198898
22.7309,11.1124
22.768,38.0287
22.8052,2.94791
22.8424,12.87
22.8795,0.795006
22.9167,17.7229
22.9539,16.6536
22.9911,-10.4127
23.0282,-5.47617
23.0654,12.4633
23.1026,0.405563
23.1397,13.3508
23.1769,13.2988
23.2141,2.24981
23.2513,4.20366
23.2884,13.1604
23.3256,18.12
23.3628,9.08253
23.3999,5.04793
23.4371,7.01621
23.4743,3.98738
23.5115,-10.0386
23.5486,17.9384
23.5858,15.9182
23.623,-9.09909
23.6601,14.8865
23.6973,-4.12501
23.7345,17.8664
23.7717,11.8606
23.8088,10.8578
23.846,25.8578
23.8832,-0.139305
23.9203,23.8665
23.9575,12.8752
23.9947,35.8867
24.0319,30.9012
24.069,46.9186
24.1062,26.9388
24.1434,43.9619
24.1805,21.9879
24.2177,31.0168
24.2549,13.0486
24.2921,31.0832
24.3292,37.1208
24.3664,15.1612
24.4036,25.2045
24.4407,17.2507
24.4779,31.2998
24.51509,23.3518
24.5523,35.4066
24.5894,3.46438
24.6266,6.52501
24.6638,6.58853
24.7009,19.6549
24.7381,4.72422
24.7753,7.7964
24.8125,-0.12854
24.8496,10.9494
24.8868,12.0302
24.924,-6.88604
24.9611,1.20057
24.9983,-7.70994
25.0355,7.38244
25.0727,8.4777
25.1098,-5.42415
25.147,12.6769
25.1842,18.7808
25.2214,-4.11239
25.2585,6.99731
25.2957,8.10989
25.3329,4.22535
25.37,12.3437
25.4072,9.46494
25.44438,7.58907
25.4816,19.7161
25.5187,-0.15403
25.5559,8.97874
25.5931,-3.88558
25.6302,31.253
25.6674,13.3944
25.7046,18.5387
25.7418,-5.31406
25.7789,12.836
25.8161,4.98902
25.8533,-0.85511
25.8904,20.3036
25.9276,2.46529
25.9648,22.6298
26.002,0.797218
26.0391,-5.03248
26.0763,7.1407
26.1135,7.31677
26.1506,-5.50427
26.1878,8.67757
26.225,6.8623
26.2622,13.0499
26.2993,0.24041
26.3365,12.4338
26.37367,3.63007
26.4108,6.82922
26.448,-4.96873
26.4852,-5.7638
26.5224,-0.725853
26.5595,15.1451
26.5967,15.019
26.6339,2.89573
26.671,11.7754
26.7082,-12.3421
26.7454,15.5433
26.7826,5.43157
26.8197,-6.67725
26.8569,5.21681
26.8941,19.1138
26.9312,-3.98641
26.9684,4.91631
27.0056,3.82191
27.0428,3.73041
27.0799,12.6418
27.1171,3.55605
27.1543,-2.55915
27.1914,-7.7038
27.2286,11.1544
27.2658,9.01554
27.30296,14.8795
27.3401,5.74643
27.3773,1.6162
27.4145,1.48886
27.4516,-10.6356
27.4888,8.242836
27.526,21.1242
27.5632,21.0084
27.6003,20.8954
27.6375,31.7854
27.6747,39.6783
27.7118,48.574
27.749,69.4727
27.7862,63.3742
27.8234,72.2786
27.8605,99.1859
27.8977,65.0961
27.9349,101.009
27.972,114.925
28.0092,85.8439
28.0464,92.7656
28.0836,94.6902
28.1207,122.618
28.1579,160.548
28.1951,163.481
28.23225,195.418
28.2694,173.357
28.3066,196.298
28.3438,147.243
28.3809,100.191
28.4181,114.142
28.4553,107.095
28.4925,107.051
28.5296,95.0106
28.5668,111.973
28.604,88.9377
28.6411,128.906
28.6783,119.876
28.7155,100.85
28.7527,150.827
28.7898,141.806
28.827,189.788
28.8642,185.774
28.9013,153.762
28.9385,158.753
28.9757,132.747
29.0129,177.743
29.05,149.743
29.0872,141.745
29.1244,155.7509
29.16154,161.759
29.1987,150.77
29.2359,205.784
29.2731,213.801
29.3102,217.821
29.3474,212.844
29.3846,188.87
29.4217,142.898
29.4589,136.929
29.4961,138.964
29.5333,106.001
29.5704,80.041
29.6076,54.0839
29.6448,67.1297
29.6819,57.1784
29.7191,48.23
29.7563,66.2845
29.7935,26.3418
29.8306,39.4021
29.8678,25.46521
29.905,47.5312
29.9421,38.6001
29.9793,44.6719
30.0165,28.7466
30.0537,27.8242
30.09083,52.9046
30.128,49.9879
30.1652,63.0742
30.2023,59.1633
30.2395,57.2552
30.2767,66.3501
30.3139,44.4479
30.351,44.5485
30.3882,35.6521
30.4254,29.7585
30.4625,31.8678
30.4997,11.98
30.5369,18.0951
30.5741,27.213
30.6112,17.3339
30.6484,2.45763
30.6856,-7.41575
30.7227,30.7138
30.7599,19.8462
30.7971,-0.0185699
30.8343,-11.8804
30.8714,0.260651
30.9086,10.4046
30.9458,13.5514
30.9829,11.7011
31.02012,4.85372
31.0573,-3.9908
31.0945,17.1676
31.1316,-0.671173
31.1688,18.493
31.206,31.66
31.2431,37.8299
31.2803,39.0027
31.3175,62.1784
31.3547,98.3569
31.3918,95.5384
31.429,114.723
31.4662,101.91
31.5034,118.1
31.5405,80.2931
31.5777,49.489
31.6149,59.6877
31.652,27.8894
31.6892,44.0939
31.7264,21.3014
31.7636,24.5117
31.8007,29.7249
31.8379,8.94097
31.8751,5.15995
31.9122,12.3818
31.94941,22.6066
31.9866,5.83418
32.0238,-1.9353
32.0609,9.2981
32.0981,1.53439
32.1353,18.7736
32.1724,45.0156
32.2096,20.2606
32.2468,5.5084
32.284,-9.40525
32.3211,-2.48039
32.3583,-0.552643
32.3955,-1.62202
32.4326,12.3115
32.4698,28.2479
32.507,10.1872
32.5442,4.12937
32.5813,-0.92556
32.6185,19.0224
32.6557,5.97322
32.6928,9.92694
32.73,4.88354
32.7672,5.84303
32.8044,-0.194588
32.8415,9.77068
32.8787,13.7388
32.9159,12.7099
32.953,0.683784
32.9902,9.66059
33.0274,-7.35972
33.0646,7.62286
33.1017,10.6083
33.1389,25.5967
33.1761,20.5879
33.2132,16.582
33.2504,27.579
33.2876,15.5789
33.3248,36.5817
33.3619,26.5874
33.3991,29.5959
33.4363,43.6074
33.4734,60.6217
33.5106,52.6389
33.5478,64.659
33.585,50.682
33.6221,75.7079
33.6593,72.7366
33.6965,102.768
33.7336,104.803
33.7708,128.84
33.80799,164.88
33.8452,211.924
33.8823,217.97
33.9195,266.019
33.9567,297.071
33.9938,367.125
34.031,389.183
34.0682,406.243
34.1054,376.307
34.1425,366.373
34.1797,349.4422
34.2169,338.514
34.254,306.589
34.2912,295.667
34.3284,219.748
34.3656,223.831
34.4027,172.918
34.4399,188.007
34.4771,163.099
34.5143,191.194
34.5514,152.293
34.5886,152.393
34.6258,139.497
34.6629,146.604
34.7001,127.713
34.73728,127.826
34.7745,109.941
34.8116,107.059
34.8488,142.181
34.886,120.305
34.9231,107.431
34.9603,125.561
34.9975,123.694
35.0347,128.829
35.0718,126.968
35.109,152.109
35.1462,146.253
35.1833,160.4
35.2205,164.55
35.2577,184.703
35.2949,180.859
35.332,189.018
35.3692,178.179
35.4064,168.343
35.4435,128.511
35.4807,109.681
35.5179,80.8539
35.5551,78.0299
35.5922,60.2087
35.6294,50.3904
35.66657,48.575
35.7037,35.7625
35.7409,37.9528
35.7781,43.14608
35.8153,37.3422
35.8524,13.5412
35.8896,14.7432
35.9268,29.948
35.9639,22.1556
36.0011,21.3662
36.0383,33.5797
36.0755,24.796
36.1126,11.0152
36.1498,15.2373
36.187,13.4623
36.2241,3.69022
36.2613,3.92099
36.2985,5.15465
36.3357,6.39119
36.3728,17.6306
36.41,16.8729
36.4472,19.1181
36.4843,-6.63378
36.5215,6.6172
36.5587,0.871048
36.59586,-1.87221
36.633,13.3874
36.6702,13.6499
36.7074,1.91534
36.7445,0.183632
36.7817,0.421883
36.8189,-2.36989
36.8561,2.84122
36.8932,-5.94478
36.9304,-1.7279
36.9676,7.49187
37.0047,11.7145
37.0419,1.94007
37.0791,6.1685
37.1163,8.39981
37.1534,-7.40562
37.1906,18.7522
37.2278,-5.08704
37.2649,-0.923431
37.3021,0.243069
37.3393,-7.58755
37.3765,-2.41528
37.4136,4.75988
37.4508,1.93792
37.488,-2.88115
37.52515,8.30267
37.5623,-5.51063
37.5995,-6.39107
37.6367,13.6614
37.6738,-6.28334
37.711,6.77486
37.7482,-1.16406
37.7854,8.89991
37.8225,10.9668
37.8597,-10.9635
37.8969,15.1091
37.934,15.1846
37.9712,3.26303
38.0084,-1.65569
38.0456,4.42848
38.0827,-0.484463
38.1199,-2.39452
38.1571,-0.371693
38.1942,-10.416
38.2314,-4.45737
38.2686,2.50413
38.3058,-6.5315
38.3429,-5.56423
38.3801,10.4059
38.4173,5.37895
38.45444,10.3549
38.4916,4.33368
38.5288,-4.68463
38.566,5.29995
38.6031,3.28742
38.6403,4.27777
38.6775,9.27101
38.7146,-7.73287
38.7518,1.26614
38.789,1.26803
38.8262,7.27281
38.8633,1.28048
38.9005,0.291031
38.9377,14.3045
38.9748,5.3208
39.012,-4.65999
39.0492,-4.6379
39.0864,11.3871
39.1235,2.41495
39.1607,6.44571
39.1979,-2.52065
39.235,10.5159
39.2722,11.5553
39.3094,3.59758
39.3466,9.64277
39.38373,17.6908
39.4209,9.74179
39.4581,21.7956
39.4952,4.85236
39.5324,10.912
39.5696,13.9745
39.6068,8.03986
39.6439,-3.89186
39.6811,-0.820709
39.7183,5.25333
39.7554,3.33027
39.7926,3.41008
39.8298,20.4928
39.867,7.57837
39.9041,10.6668
39.9413,15.7582
39.9785,13.8524
40.0156,3.94957
40.0528,24.0496
40.09,10.1525
40.1272,13.2583
40.1643,10.367
40.2015,41.4785
40.2387,28.593
40.2758,23.7103
40.31302,12.8305
40.3502,22.9536
40.3874,4.07961
40.4245,12.2085
40.4617,21.3403
40.4989,9.4749
40.536,11.6124
40.5732,17.7529
40.6104,22.8962
40.6476,18.0424
40.6847,26.1914
40.7219,19.3434
40.7591,6.49824
40.7963,16.656
40.8334,16.8166
40.8706,7.98011
40.9078,16.1465
40.9449,18.3158
40.9821,6.48795
41.0193,7.663
41.0565,0.840935
41.0936,10.0218
41.1308,6.20547
41.168,11.3921
41.2051,4.58154
41.24231,-2.22609
41.2795,23.9692
41.3167,5.1673
41.3538,2.36833
41.391,4.57224
41.4282,11.779
41.4653,6.98872
41.5025,4.20129
41.5397,19.4167
41.5769,14.6351
41.614,7.85631
41.6512,3.08042
41.6884,3.30742
41.7255,0.537304
41.7627,0.770073
41.7999,-0.99427
41.8371,12.2443
41.8742,18.4857
41.9114,10.73
41.9486,0.977215
41.9857,-1.7727
42.0229,-2.51973
42.0601,-0.26387
42.0973,14.9949
42.1344,-11.7435
42.1716,-3.47898
42.2088,5.78842
42.2459,-2.94129
42.2831,9.33188
42.3203,9.60794
42.3575,-6.11311
42.3946,-0.831284
42.4318,2.45343
42.469,-4.3959
42.5061,-5.3793
42.5433,5.64019
42.5805,8.66257
42.6177,5.68783
42.6548,-2.28402
42.692,-5.25298
42.7292,9.78094
42.7663,2.81775
42.8035,0.857441
42.8407,8.90002
42.8779,11.9455
42.915,6.99384
42.9522,8.04507
42.9894,7.0992
43.0265,18.1562
43.0637,8.2161
43.10089,12.2789
43.1381,11.3445
43.1752,4.4131
43.2124,5.48454
43.2496,-6.44114
43.2867,8.63607
43.3239,2.71617
43.3611,10.7992
43.3983,-0.114979
43.4354,15.9738
43.4726,-0.934582
43.5098,2.15994
43.5469,10.2574
43.5841,10.3577
43.6213,-1.53916
43.6585,-0.433094
43.6956,7.67587
43.7328,0.787704
43.77,9.90243
43.8072,-6.97995
43.8443,12.1282
43.8815,12.2392
43.9187,4.35313
43.9558,15.4699
43.993,10.5896
44.03018,-4.28782
44.0674,12.8376
44.1045,-1.03402
44.1417,6.09721
44.1789,11.2313
44.216,13.3683
44.2532,6.50821
44.2904,6.65099
44.3276,17.7966
44.3647,2.94519
44.4019,-2.09821
44.4391,2.66644
44.4762,5.43399
44.5134,22.2044
44.5506,11.9777
44.5878,3.75393
44.6249,8.53302
44.6621,12.315
44.6993,32.0998
44.7364,20.8876
44.7736,6.67822
44.8108,19.4717
44.848,15.2681
44.8851,14.0674
44.9223,4.8696
44.95947,-2.32534
44.9966,-0.517399
45.0338,23.2934
45.071,15.1072
45.1082,-6.07624
45.1453,-0.256756
45.1825,9.56562
45.2197,10.3909
45.2568,-2.78097
45.294,14.0501
45.3312,-0.11602
45.3684,-4.27922
45.4055,14.5605
45.4427,7.40305
45.4799,3.24851
45.517,0.0968628
45.5542,10.9481
45.5914,13.8022
45.6286,6.65923
45.6657,17.5191
45.7029,9.3819
45.7401,1.24756
45.7772,8.11611
45.8144,7.98755
45.8516,17.8619
45.88876,3.73907
45.9259,16.6192
45.9631,0.502151
46.0003,10.388
46.0374,12.2768
46.0746,13.1684
46.1118,25.0629
46.149,28.9603
46.1861,2.86063
46.2233,10.7638
46.2605,-2.33012
46.2976,11.5788
46.3348,18.4907
46.372,-7.5946
46.4092,8.32301
46.4463,18.2435
46.4835,4.16689
46.5207,10.0932
46.5578,0.0223198
46.595,2.95436
46.6322,8.88929
46.6694,22.8271
46.7065,-0.232201
46.7437,11.7114
46.7809,4.65785
46.81805,12.6072
46.8552,17.5595
46.8924,-2.48542
46.9296,6.4726
46.9667,-7.56651
47.0039,6.39728
47.0411,5.36396
47.0783,-2.66649
47.1154,5.30596
47.1526,9.28129
47.1898,-3.7405
47.2269,4.2406
47.2641,3.22459
47.3013,-3.82919
47.3385,15.0793
47.3756,0.990593
47.4128,5.90482
47.45,6.82192
47.4871,9.74191
47.5243,-4.33521
47.5615,0.590553
47.5987,-2.4808
47.6358,1.45074
47.673,-3.61484
47.7102,8.32247
47.74734,9.26266
47.7845,6.20574
47.8217,1.15171
47.8589,3.10056
47.896,12.0523
47.9332,12.0069
47.9704,15.9644
48.0075,19.9248
48.0447,12.8881
48.0819,13.8543
48.1191,33.8233
48.1562,5.79526
48.1934,34.7701
48.2306,26.7478
48.2677,50.7284
48.3049,32.7119
48.3421,35.6982
48.3793,40.6875
48.4164,45.6796
48.4536,34.6747
48.4908,61.6726
48.5279,63.6734
48.5651,72.6771
48.6023,83.6836
48.6395,100.693
48.67663,92.7054
48.7138,123.721
48.751,134.739
48.7881,169.76
48.8253,148.784
48.8625,182.81
48.8997,213.84
48.9368,234.873
48.974,238.908
49.0112,235.946
49.0483,219.988
49.0855,198.032
49.1227,205.079
49.1599,220.128
49.197,219.181
49.2342,227.237
49.2714,215.295
49.3085,200.357
49.3457,188.421
49.3829,189.488
49.4201,162.558
49.4572,158.631
49.4944,116.7071
49.5316,114.786
49.5687,74.8674
49.60592,67.9519
49.6431,59.0393
49.6803,36.1296
49.7174,39.2227
49.7546,41.3187
49.7918,56.4177
49.8289,45.5195
49.8661,31.6242
49.9033,21.7317
49.9405,31.8422
49.9776,43.9555
50.0148,71.0718
50.052,46.1909
50.0892,55.3129
50.1263,60.4378
50.1635,66.5656
50.2007,59.6963
50.2378,59.8298
50.275,36.9662
50.3122,37.1056
50.3494,29.2478
50.3865,46.3929
50.4237,51.5409
50.4609,38.6917
50.498,35.8455
50.53521,33.0021
50.5724,24.1616
50.6096,27.324
50.6467,34.4893
50.6839,19.6575
50.7211,29.8286
50.7582,34.0025
50.7954,21.17939
50.8326,26.3591
50.8698,25.5417
50.9069,31.7272
50.9441,12.9156
50.9813,18.1069
51.0184,15.301
51.0556,11.4981
51.0928,8.69801
51.13,30.9008
51.1671,18.1065
51.2043,30.3151
51.2415,24.5266
51.2786,27.7409
51.3158,0.958187
51.353,22.1783
51.3902,12.4013
51.4273,-0.372765
51.4645,2.85602
51.5017,1.0877
51.5388,7.32225
51.576,3.5597
51.6132,4.80003
51.6504,13.0433
51.6875,4.28935
51.7247,16.5383
51.7619,-2.20978
51.799,-2.97395
51.8362,1.24584
51.8734,5.46852
51.9106,0.69408
51.9477,7.92253
51.9849,5.15387
52.0221,0.388088
52.0592,13.6252
52.0964,15.8652
52.1336,11.1081
52.1708,-1.64617
52.2079,18.6025
52.2451,10.854
52.2823,6.10844
52.3194,16.3657
52.3566,1.62595
52.39379,-3.11097
52.431,4.01949
52.4681,5.01732
52.5053,16.018
52.5425,-6.97835
52.5796,11.9295
52.6168,-2.15981
52.654,-2.2462
52.6912,13.6703
52.7283,0.589661
52.7655,1.51192
52.8027,-2.56293
52.8398,11.3651
52.877,-3.70398
52.9142,4.22982
52.9514,0.166512
52.9885,-6.89391
53.0257,5.04855
53.0629,1.9939
53.1001,4.94213
53.1372,0.89325
53.1744,10.8473
53.2116,12.8041
53.2487,14.7639
53.2859,9.72659
53.32308,10.6921
53.3603,-1.33943
53.3974,4.63189
53.4346,-2.3939
53.4718,9.58319
53.5089,-8.43682
53.5461,5.54604
53.5833,-6.46821
53.6205,9.52043
53.6576,-3.48805
53.6948,-3.49364
53.732,9.50365
53.7691,12.5038
53.8063,16.5069
53.8435,14.5129
53.8807,29.5217
53.9178,23.5334
53.955,15.548
53.9922,-3.43447
54.0293,11.5859
54.0665,15.6092
54.1037,15.6353
54.1409,5.66437
54.178,15.6963
54.2152,2.73111
54.25237,10.7688
54.2895,-0.190609
54.3267,12.8529
54.3639,3.89922
54.4011,-2.05154
54.4382,-4.99942
54.4754,8.0556
54.5126,-7.8865
54.5497,11.1743
54.5869,-3.762043
54.6241,7.30451
54.6613,-2.62605
54.6984,7.44629
54.7356,-11.4785
54.7728,2.54355
54.8099,-2.43151
54.8471,0.59631
54.8843,6.62702
54.9215,9.66061
54.9586,9.69709
54.9958,9.73646
55.033,-0.221291
55.0701,11.8238
55.1073,13.8719
55.1445,24.9228
55.18166,4.97658
55.2188,12.0333
55.256,3.09283
55.2932,22.1553
55.3303,21.2206
55.3675,9.28885
55.4047,18.36
55.4419,19.434
55.479,17.5108
55.5162,15.5906
55.5534,16.6733
55.5905,17.7588
55.6277,11.8472
55.6649,5.93855
55.7021,15.0327
55.7392,10.1298
55.7764,5.2298
55.8136,10.3327
55.8507,19.4384
55.8879,10.547
55.9251,9.65854
55.9623,8.77295
55.9994,15.8902
56.0366,12.0104
56.0738,16.1335
56.11095,11.2594
56.1481,16.3882
56.1853,5.51995
56.2225,20.6546
56.2596,14.792
56.2968,2.93242
56.334,6.07568
56.3712,11.2218
56.4083,-2.62914
56.4455,-7.47723
56.4827,0.0834808
56.5198,8.64708
56.557,14.2136
56.5942,1.78292
56.6314,16.3552
56.6685,0.930309
56.7057,7.50833
56.7429,6.08924
56.78,7.67303
56.8172,8.25972
56.8544,19.8493
56.8916,12.4417
56.9287,13.0371
56.9659,16.6353
57.0031,18.2364
57.04024,-0.159595
57.0774,5.44729
57.1146,22.0571
57.1518,1.66971
57.1889,13.2853
57.2261,8.90368
57.2633,18.525
57.3004,19.1492
57.3376,19.7763
57.3748,6.40624
57.412,28.0391
57.4491,18.6748
57.4863,10.3135
57.5235,27.955
57.5606,11.5994
57.5978,15.2467
57.635,25.8968
57.6722,26.5499
57.7093,21.2058
57.7465,39.8647
57.7837,50.5264
57.8208,39.191
57.858,57.8585
57.8952,70.5289
57.9324,87.2021
57.96953,97.8783
58.0067,105.557
58.0439,99.2392
58.081,114.924
58.1182,94.6117
58.1554,94.3023
58.1926,83.9957
58.2297,96.6921
58.2669,75.3913
58.3041,62.0934
58.3412,50.7984
58.3784,46.5063
58.4156,39.2171
58.4528,21.9308
58.4899,22.6473
58.5271,33.3667
58.5643,7.08907
58.6014,9.81427
58.6386,-3.45764
58.6758,20.2733
58.713,10.0072
58.7501,3.74395
58.7873,6.48359
58.8245,17.2261
58.8616,5.97152
58.89882,4.71981
58.936,-2.52901
58.9732,1.22506
59.0103,2.98201
59.0475,12.7418
59.0847,11.5046
59.1218,9.27018
59.159,27.0387
59.1962,20.8101
59.2334,16.5843
59.2705,33.3615
59.3077,4.14152
59.3449,17.9244
59.3821,6.71025
59.4192,-10.501
59.4564,6.29053
59.4936,-2.915
59.5307,11.8824
59.5679,-0.317402
59.6051,-6.88701
59.6423,-9.82646
59.6794,3.23698
59.7166,4.30329
59.7538,8.3725
59.7909,7.44459
59.82811,2.51957
59.8653,7.59743
59.9025,21.6782
59.9396,17.7618
59.9768,4.84834
60.014,-8.06226
60.0326,-8.30663