File: xrd_example_data_files/ZrP_2.csv
'y-axis saved as y
'x,ML_Wallace_03012020_1_NN_1_ZrP_900CCrucible_5-60_4min_BkgSubtracted.raw_1
5,-22.2261
5.03717,38.8117
5.07434,40.854
5.11151,63.901
5.14869,-21.0476
5.185858,33.9764
5.22303,-5.99506
5.2602,-2.96198
5.29737,25.0757
5.33454,32.1179
5.371716,19.1646
5.40889,31.216
5.44606,-22.7281
5.48323,25.3323
5.5204,24.3973
5.557574,16.4668
5.59475,-1.45905
5.63192,0.619629
5.66909,-28.2971
5.70626,-19.2094
5.743432,-12.4041
5.7806,-64.5941
5.81778,2.22031
5.85495,37.0393
5.89212,-0.137115
5.92929,-24.30896
5.96646,-23.4763
6.00363,24.361
6.0408,12.2028
6.07798,40.0491
6.115148,8.90005
6.15232,24.7555
6.18949,31.6155
6.22666,-3.51987
6.26383,0.349304
6.301006,8.22299
6.33818,-0.898743
6.37535,22.9841
6.41252,8.87146
6.44969,-3.2366
6.486864,9.65991
6.52404,24.561
6.56121,-10.5334
6.59838,-1.62326
6.63555,20.2915
6.672722,-19.7892
6.70989,12.1346
6.74707,36.063
6.78424,14.996
6.82141,-15.0665
6.85858,-1.74052
6.89575,10.59
6.93292,-9.07486
6.97009,-4.73518
7.00727,-12.391
7.044438,0.957825
7.08161,6.31116
7.11878,-4.33095
7.15595,15.0315
7.19312,-13.6015
7.230296,-0.760986
7.26747,-4.91594
7.30464,2.93365
7.34181,-0.212189
7.37898,10.6465
7.416154,-13.4902
7.45333,19.871
7.4905,-2.76315
7.52767,-17.3928
7.56484,-13.0179
7.602012,-1.6384
7.63918,-15.2544
7.67636,-4.86577
7.71353,-5.47261
7.7507,-11.0749
7.78787,-10.9699
7.82504,-7.15759
7.86221,8.65927
7.89938,0.480682
7.93656,-25.6933
7.973728,11.1372
8.0109,-0.02771
8.04807,-17.1881
8.08524,0.656158
8.12241,-1.49509
8.159586,0.358246
8.19676,10.2161
8.23393,5.07857
8.2711,-4.82817
8.30827,-5.50409
8.345444,14.8246
8.38262,6.15777
8.41979,-1.50446
8.45696,-8.16214
8.49413,14.1847
8.531302,0.536179
8.56847,-2.10783
8.60565,6.25272
8.64282,31.6178
8.67999,24.9875
8.71716,2.36173
8.75433,-0.259483
8.7915,17.1239
8.82867,-18.4882
8.86585,12.5388
8.903018,15.5705
8.94019,6.60669
8.97736,9.64745
9.01453,15.6928
9.0517,-4.25736
9.088876,1.79707
9.12605,14.8561
9.16322,7.91961
9.20039,14.9877
9.23756,-2.93962
9.274734,32.1376
9.31191,10.2194
9.34908,7.30573
9.38625,4.39661
9.42342,5.49207
9.460592,12.5921
9.49776,34.6966
9.53494,-10.1942
9.57211,15.9195
9.60928,9.0377
9.64645,20.1605
9.68362,25.2879
9.72079,9.41978
9.75796,35.5563
9.79514,7.69729
9.832308,-2.15713
9.86948,-9.00698
9.90665,-6.85227
9.94382,5.30699
9.98099,5.47081
10.0182,7.63919
10.0553,3.81213
10.0925,2.98962
10.1297,-0.828331
10.1669,-11.6417
10.204,21.5494
10.2412,12.7452
10.2784,11.9455
10.3155,13.1503
10.3527,20.3597
10.3899,16.5737
10.4271,8.79217
10.4642,-3.98476
10.5014,16.2429
10.5386,-0.52494
10.57574,32.7118
10.6129,12.9531
10.6501,14.199
10.6873,-0.550606
10.7244,-10.2956
10.7616,-3.03823
10.7988,11.2237
10.8359,12.4902
10.8731,9.7613
10.9103,2.03693
10.9475,4.31712
10.9846,39.60186
11.0218,-12.1088
11.059,-4.81498
11.0961,0.483437
11.1333,9.78642
11.1705,2.09395
11.2077,-6.59396
11.2448,14.7227
11.282,-4.95611
11.3192,-9.63034
11.3563,-2.30002
11.3935,6.03486
11.4307,0.374298
11.4679,10.7183
11.50503,16.0668
11.5422,15.42
11.5794,25.7776
11.6165,-2.86015
11.6537,-4.49336
11.6909,14.878
11.7281,14.2539
11.7652,21.6343
11.8024,15.0194
11.8396,2.40893
11.8767,13.8031
11.9139,-4.79825
11.9511,15.605
11.9883,-9.9872
12.0254,8.32943
12.0626,10.6506
12.0998,5.97636
12.1369,16.3067
12.1741,9.64153
12.2113,-6.01905
12.2485,-9.67508
12.2856,14.6735
12.3228,30.0266
12.36,12.3842
12.3971,15.7464
12.43432,7.11317
12.4715,3.4845
12.5087,7.86038
12.5458,19.2408
12.583,4.62582
12.6202,15.0154
12.6573,12.4095
12.6945,1.80815
12.7317,-0.78862
12.7689,-9.38083
12.806,11.9623
12.8432,-3.69005
12.8804,10.6622
12.9176,-0.981033
12.9547,36.3803
12.9919,-2.25379
13.0291,12.1167
13.0662,12.4917
13.1034,4.87125
13.1406,5.25539
13.1778,14.6441
13.2149,-7.962677
13.2521,6.43513
13.2893,4.83749
13.3264,33.2444
13.36361,12.6559
13.4008,22.0719
13.438,2.49252
13.4751,-14.0823
13.5123,-0.652611
13.5495,1.78165
13.5866,10.2205
13.6238,18.6639
13.661,-8.88819
13.6982,8.18869
13.7353,-5.72987
13.7725,34.3561
13.8097,21.4467
13.8468,10.5418
13.884,16.6415
13.9212,3.74569
13.9584,1.85447
13.9955,19.9678
14.0327,18.0857
14.0699,35.2082
14.107,30.3352
14.1442,41.4668
14.1814,23.6029
14.2186,33.7436
14.2557,24.8888
14.2929,9.03864
14.3301,11.193
14.3672,-5.64808
14.4044,4.5154
14.4416,21.6834
14.4788,7.85603
14.5159,20.0332
14.5531,-4.7851
14.5903,3.40117
14.6274,2.592
14.6646,5.78738
14.7018,4.98732
14.739,-3.80818
14.7761,-2.59912
14.8133,2.61449
14.8505,-5.16734
14.8876,6.0554
14.9248,15.2827
14.962,-10.4855
14.9992,14.4973
15.0363,-2.5153
15.0735,-2.52338
15.1107,10.4731
15.1478,22.4741
15.185,-8.52027
15.22219,-8.51012
15.2594,2.50459
15.2965,-8.47614
15.3337,6.54768
15.3709,1.57607
15.408,9.60901
15.4452,0.646507
15.4824,-3.31143
15.5196,8.73518
15.5567,7.78635
15.5939,4.84209
15.6311,-7.09763
15.6682,-4.03278
15.7054,8.03662
15.7426,2.11059
15.7798,-5.81089
15.8169,-0.727814
15.8541,15.3598
15.8913,9.45201
15.9285,15.5488
15.9656,16.6501
16.0028,-4.24406
16.04,-1.13364
16.0771,11.9813
16.1143,4.10089
16.15148,-8.77502
16.1887,8.35365
16.2258,19.4869
16.263,15.6246
16.3002,7.76696
16.3373,16.9138
16.3745,29.0653
16.4117,0.221291
16.4489,10.3819
16.486,-8.45303
16.5232,1.71665
16.5604,13.8909
16.5975,10.0697
16.6347,22.253
16.6719,18.4409
16.7091,-8.3666
16.7462,8.51717
16.7834,8.40551
16.8206,1.2984
16.8577,21.1958
16.8949,1.09785
16.9321,12.0044
16.9693,16.9155
17.0064,1.83122
17.0436,3.75146
17.08077,15.6763
17.1179,3.60561
17.1551,13.5395
17.1923,9.47799
17.2295,14.421
17.2666,8.3686
17.3038,17.3207
17.341,23.2774
17.3781,29.2387
17.4153,0.204521
17.4525,4.1749
17.4897,13.1498
17.5268,32.1293
17.564,21.1134
17.6012,8.10197
17.6383,7.09513
17.6755,11.0929
17.7127,21.0951
17.7499,15.102
17.787,7.11337
17.8242,9.12932
17.8614,3.14983
17.8985,5.1749
17.9357,11.2045
17.9729,7.2387
18.01006,5.27744
18.0472,0.320747
18.0844,14.3686
18.1216,3.42102
18.1587,12.478
18.1959,-1.46048
18.2331,0.605606
18.2703,21.6763
18.3074,0.751457
18.3446,0.831223
18.3818,16.9155
18.4189,-6.99558
18.4561,-1.90215
18.4933,-0.804153
18.5305,14.2984
18.5676,1.40551
18.6048,9.51717
18.642,-8.3666
18.6791,11.5377
18.7163,21.4465
18.7535,11.3599
18.7907,8.27789
18.8278,8.20041
18.865,-9.87252
18.9022,8.05911
18.93935,10.9953
18.9765,15.9361
19.0137,2.88136
19.0509,8.83122
19.088,15.7856
19.1252,-5.25538
19.1624,1.70816
19.1996,8.67625
19.2367,10.6489
19.2739,14.6261
19.3111,2.60789
19.3482,13.5942
19.3854,14.5851
19.4226,11.5805
19.4598,19.5805
19.4969,10.5851
19.5341,9.59422
19.5713,11.6079
19.6084,8.62612
19.6456,17.6489
19.6828,3.67625
19.72,11.7082
19.7571,6.74462
19.7943,7.78564
19.8315,4.83122
19.86864,0.881355
19.9058,-7.06395
19.943,25.9953
19.9802,2.05911
20.0173,6.12748
20.0545,8.20041
20.0917,13.2779
20.1288,22.3599
20.166,3.44653
20.2032,10.5377
20.2404,-8.3666
20.2775,0.552528
20.3147,8.47622
20.3519,4.40446
20.389,20.3373
20.4262,9.27464
20.4634,5.21656
20.5006,8.16303
20.5377,-6.88593
20.5749,-2.930336
20.6121,19.0298
20.6492,0.99453
20.6864,0.963799
20.7236,-2.06238
20.7608,10.916
20.79793,11.8989
20.8351,5.88644
20.8723,11.8785
20.9094,-7.12489
20.9466,21.8763
20.9838,-0.117981
21.021,-1.10769
21.0581,1.90716
21.0953,7.92656
21.1325,2.95052
21.1696,-0.0209579
21.2068,15.0121
21.244,-7.95025
21.2812,7.09194
21.3183,4.13869
21.3555,9.19
21.3927,11.2459
21.4298,7.3063
21.467,16.3713
21.5042,4.44082
21.5414,-8.48508
21.5785,-2.49873
21.6157,21.4922
21.6529,4.48766
21.69,-2.51231
21.72722,15.4923
21.7644,4.50143
21.8016,-4.48486
21.8387,0.533401
21.8759,3.55622
21.9131,11.5836
21.9502,-5.38447
21.9874,5.65202
22.0246,6.69308
22.0618,11.7387
22.0989,1.78886
22.1361,1.84358
22.1733,2.90286
22.2105,15.9667
22.2476,18.0351
22.2848,8.10806
22.322,9.18558
22.3591,5.26765
22.3963,12.3543
22.4335,17.4455
22.4707,8.54121
22.5078,-5.35848
22.545,-7.27457
22.5822,-3.20706
22.6193,-8.13499
22.65651,5.94164
22.6937,-0.977173
22.7309,18.1086
22.768,3.19888
22.8052,3.29373
22.8424,16.3932
22.8795,15.4971
22.9167,-2.39434
22.9539,3.71876
22.9911,19.8364
23.0282,-7.04139
23.0654,40.0854
23.1026,15.2167
23.1397,-8.64742
23.1769,17.493
23.2141,8.63802
23.2513,9.78757
23.2884,10.9417
23.3256,11.1004
23.3628,4.26359
23.3999,5.43137
23.4371,3.60371
23.4743,-8.21938
23.5115,7.96207
23.5486,16.1481
23.5858,17.3387
23.623,14.5338
23.6601,13.73349
23.6973,-8.06226
23.7345,15.7763
23.7717,10.6194
23.8088,30.4671
23.846,13.3193
23.8832,16.1761
23.9203,17.0374
23.9575,16.9033
23.9947,22.7738
24.0319,18.6488
24.069,52.5284
24.1062,37.4125
24.1434,62.3012
24.1805,28.1945
24.2177,23.0923
24.2549,27.9946
24.2921,13.9015
24.3292,21.813
24.3664,14.7291
24.4036,24.6497
24.4407,19.5748
24.4779,32.5045
24.51509,22.4388
24.5523,30.3776
24.5894,21.321
24.6266,4.26894
24.6638,18.2214
24.7009,9.1785
24.7381,0.140114
24.7753,-10.8937
24.8125,-13.923
24.8496,8.05231
24.8868,8.03215
24.924,24.0166
24.9611,5.00552
24.9983,0.999039
25.0355,12.9971
25.0727,4.99976
25.1098,9.00694
25.147,0.0186996
25.1842,15.035
25.2214,9.05587
25.2585,-10.9187
25.2957,-14.8887
25.3329,6.14582
25.37,5.18492
25.4072,19.2286
25.44438,6.27679
25.4816,9.32956
25.5187,-1.61311
25.5559,3.44878
25.5931,-13.4848
25.6302,2.51571
25.6674,-7.47925
25.7046,5.53035
25.7418,15.5445
25.7789,-0.436775
25.8161,11.5865
25.8533,3.61433
25.8904,-4.35328
25.9276,3.68366
25.9648,3.72517
26.002,14.7712
26.0391,-3.17815
26.0763,9.87703
26.1135,2.93677
26.1506,5.00106
26.1878,6.06991
26.225,0.143318
26.2622,1.22128
26.2993,14.3038
26.3365,-9.60911
26.37367,-0.517464
26.4108,3.57874
26.448,-8.32051
26.4852,-11.2152
26.5224,2.89468
26.5595,-12.9909
26.5967,0.12809
26.6339,11.2516
26.671,8.37974
26.7082,0.512398
26.7454,16.6496
26.7826,6.7914
26.8197,-6.06227
26.8569,-5.91138
26.8941,4.24407
26.9312,4.40408
26.9684,4.56864
27.0056,4.73777
27.0428,4.91145
27.0799,-5.08147
27.1171,4.759
27.1543,17.604
27.1914,6.45363
27.2286,9.30778
27.2658,12.1665
27.30296,2.02975
27.3401,-2.10242
27.3773,2.76996
27.4145,11.6469
27.4516,7.52839
27.4888,-0.585556
27.526,7.30505
27.5632,2.20023
27.6003,3.09995
27.6375,10.0042
27.6747,22.9131
27.7118,9.82648
27.749,36.7444
27.7862,44.667
27.8234,83.594
27.8605,142.526
27.8977,310.462
27.9349,303.403
27.972,268.3479
28.0092,226.298
28.0464,162.252
28.0836,129.211
28.1207,110.175
28.1579,164.143
28.1951,156.115
28.23225,219.093
28.2694,197.074
28.3066,148.061
28.3438,153.052
28.3809,163.047
28.4181,171.047
28.4553,247.052
28.4925,273.061
28.5296,235.074
28.5668,195.093
28.604,128.115
28.6411,77.1428
28.6783,121.175
28.7155,132.211
28.7527,198.252
28.7898,402.298
28.827,576.3479
28.8642,561.403
28.9013,444.462
28.9385,327.526
28.9757,169.594
29.0129,86.667
29.05,49.7444
29.0872,44.8265
29.1244,47.9131
29.16154,27.0042
29.1987,21.1
29.2359,13.2002
29.2731,2.30505
29.3102,10.4144
29.3474,5.52839
29.3846,0.646896
29.4217,-8.23004
29.4589,-1.10242
29.4961,9.02975
29.5333,1.16649
29.5704,5.30778
29.6076,-0.546371
29.6448,7.60404
29.6819,7.759
29.7191,-4.08147
29.7563,5.01024
29.7935,12.0341
29.8306,5.06258
29.8678,20.0956
29.905,19.1331
29.9421,9.17527
29.9793,10.2219
30.0165,8.27319
30.0537,28.329
30.09083,27.3893
30.128,23.4542
30.1652,39.5237
30.2023,41.5977
30.2395,60.6763
30.2767,41.7595
30.3139,26.8472
30.351,38.9394
30.3882,36.0362
30.4254,35.1376
30.4625,31.2435
30.4997,1.35404
30.5369,17.4691
30.5741,14.5887
30.6112,4.71285
30.6484,0.841576
30.6856,3.97485
30.7227,-1.88731
30.7599,10.2551
30.7971,-12.598
30.8343,20.5535
30.8714,8.70961
30.9086,-3.12976
30.9458,13.0354
30.9829,-7.79484
31.02012,11.3795
31.0573,11.5583
31.0945,0.741737
31.1316,12.9297
31.1688,22.1222
31.206,31.3193
31.2431,37.521
31.2803,68.7272
31.3175,88.9379
31.3547,113.153
31.3918,167.373
31.429,202.598
31.4662,222.827
31.5034,167.06
31.5405,131.298
31.5777,125.541
31.6149,85.7881
31.652,64.0399
31.6892,56.2962
31.7264,37.5571
31.7636,30.8226
31.8007,25.0926
31.8379,15.3672
31.8751,20.6463
31.9122,15.93
31.94941,-3.78176
31.9866,-1.48896
32.0238,10.8084
32.0609,15.1103
32.0981,15.4168
32.1353,-0.272175
32.1724,-3.95658
32.2096,0.363567
32.2468,5.68827
32.284,-11.98246
32.3211,-1.64864
32.3583,1.68974
32.3955,6.03268
32.4326,6.38018
32.4698,1.73223
32.507,10.0888
32.5442,7.45002
32.5813,20.8157
32.6185,4.18603
32.6557,9.56087
32.6928,3.94027
32.73,3.32423
32.7672,-2.47381
32.8044,4.54615
32.8415,14.5707
32.8787,4.59975
32.9159,4.63338
32.953,10.6716
32.9902,-0.285675
33.0274,-3.23837
33.0646,8.8135
33.1017,-12.1301
33.1389,-3.0691
33.1761,21.9964
33.2132,1.06654
33.2504,5.14119
33.2876,0.220406
33.3248,14.3042
33.3619,10.3925
33.3991,13.4854
33.4363,14.5828
33.4734,4.68483
33.5106,-1.20861
33.5478,8.90251
33.585,-9.98182
33.6221,7.92871
33.6593,12.8438
33.6965,6.76345
33.7336,11.6876
33.7708,-8.38359
33.80799,0.549728
33.8452,0.476734
33.8823,33.3974
33.9195,18.3227
33.9567,21.2525
33.9938,32.1868
34.031,37.1258
34.0682,38.0693
34.1054,33.0173
34.1425,47.9699
34.1797,42.927
34.2169,35.8888
34.254,55.855
34.2912,27.8259
34.3284,36.8012
34.3656,49.7812
34.4027,35.7657
34.4399,31.7547
34.4771,33.7484
34.5143,34.7465
34.5514,30.7493
34.5886,31.7566
34.6258,38.7684
34.6629,27.7848
34.7001,29.8058
34.73728,20.8313
34.7745,25.8614
34.8116,29.896
34.8488,32.9352
34.886,38.979
34.9231,40.0273
34.9603,45.0802
34.9975,60.1376
35.0347,78.1996
35.0718,85.2661
35.109,99.3372
35.1462,153.413
35.1833,188.493
35.2205,230.578
35.2577,406.667
35.2949,725.761
35.332,1104.86
35.3692,1161.96
35.4064,1021.07
35.4435,931.182
35.4807,591.299
35.5179,372.42
35.5551,205.546
35.5922,141.676
35.6294,127.811
35.66657,67.9507
35.7037,57.0947
35.7409,38.2433
35.7781,39.3964
35.8153,39.5541
35.8524,29.7164
35.8896,36.8832
35.9268,23.0545
35.9639,24.2305
36.0011,7.41096
36.0383,2.59601
36.0755,17.7856
36.1126,14.9798
36.1498,8.17849
36.187,18.3818
36.2241,7.5896
36.2613,4.802
36.2985,-6.98105
36.3357,11.0792
36.3728,3.14409
36.41,7.2135
36.4472,21.2875
36.4843,11.366
36.5215,15.4491
36.5587,-0.463287
36.59586,14.6289
36.633,7.72567
36.6702,10.827
36.7074,9.93285
36.7445,-4.95672
36.7817,11.1583
36.8189,1.27781
36.8561,5.40191
36.8932,11.5306
36.9304,4.66379
36.9676,2.80157
37.0047,13.9439
37.0419,18.0908
37.0791,6.24224
37.1163,-10.6017
37.1534,0.558815
37.1906,2.72394
37.2278,5.89362
37.2649,-3.93214
37.3021,1.24665
37.3393,12.43
37.3765,9.61792
37.4136,4.81039
37.4508,8.00742
37.488,-0.790997
37.52515,-3.58485
37.5623,4.45406
37.5995,-2.67427
37.6367,12.202
37.6738,6.08275
37.711,6.96809
37.7482,16.858
37.7854,4.75246
37.8225,1.65148
37.8597,8.55506
37.8969,12.4632
37.934,9.37589
37.9712,1.29314
38.0084,8.21495
38.0456,6.14131
38.0827,11.0722
38.1199,0.00772095
38.1571,0.947762
38.1942,-5.10764
38.2314,1.84151
38.2686,0.795227
38.3058,10.7535
38.3429,-0.283672
38.3801,7.68372
38.4173,7.65566
38.45444,1.632164
38.4916,7.61322
38.5288,-6.40116
38.566,13.589
38.6031,17.5838
38.6403,10.583
38.6775,8.58689
38.7146,5.5953
38.7518,11.6083
38.789,6.62579
38.8262,3.64787
38.8633,32.6745
38.9005,-5.29429
38.9377,1.74146
38.9748,12.7818
39.012,-5.17336
39.0492,14.8761
39.0864,1.93006
39.1235,0.988605
39.1607,-0.0294342
39.1979,-0.124054
39.235,7.78588
39.2722,1.70038
39.3094,-0.380566
39.3466,0.543045
39.38373,0.471218
39.4209,-1.59606
39.4581,0.341228
39.4952,0.283073
39.5324,4.22947
39.5696,18.1804
39.6068,5.13595
39.6439,21.096
39.6811,2.06065
39.7183,0.0298462
39.7554,9.00359
39.7926,-6.0181
39.8298,9.96476
39.867,2.95218
39.9041,11.9442
39.9413,22.9407
39.9785,17.9418
40.0156,20.9474
40.0528,17.9577
40.09,22.9724
40.1272,76.9918
40.1643,63.0156
40.2015,116.044
40.2387,173.077
40.2758,282.115
40.31302,302.157
40.3502,266.203
40.3874,229.255
40.4245,210.31
40.4617,129.371
40.4989,82.4357
40.536,57.5052
40.5732,52.5792
40.6104,37.6578
40.6476,25.7409
40.6847,42.8286
40.7219,33.9208
40.7591,24.0176
40.7963,10.119
40.8334,30.2249
40.8706,18.3354
40.9078,9.45046
40.9449,17.5701
40.9821,23.6942
41.0193,15.8229
41.0565,21.9562
41.0936,9.09404
41.1308,32.2364
41.168,19.3834
41.2051,14.5349
41.24231,13.6909
41.2795,12.8516
41.3167,4.01673
41.3538,17.1865
41.391,9.36076
41.4282,13.5396
41.4653,12.723
41.5025,14.911
41.5397,-0.896496
41.5769,18.3006
41.614,2.50222
41.6512,10.7084
41.6884,9.91917
41.7255,4.13449
41.7627,-7.64564
41.7999,4.57879
41.8371,13.8078
41.8742,11.0413
41.9114,-8.72058
41.9486,3.52208
41.9857,9.7693
42.0229,-10.9789
42.0601,16.0202
42.0973,12.0238
42.1344,8.03199
42.1716,5.04474
42.2088,0.0620499
42.2459,-5.91608
42.2831,9.99318
42.3203,-5.093
42.3575,11.8254
42.3946,7.74831
42.4318,-0.324192
42.469,10.6079
42.5061,9.54447
42.5433,19.4856
42.5805,8.43136
42.6177,1.38164
42.6548,-3.663517
42.692,2.29588
42.7292,6.25984
42.7663,1.22835
42.8035,-0.79858
42.8407,1.17905
42.8779,14.1612
42.915,5.14798
42.9522,7.13929
42.9894,21.1351
43.0265,-0.864433
43.0637,15.1405
43.10089,4.15008
43.1381,17.1642
43.1752,4.18282
43.2124,1.20603
43.2496,5.23379
43.2867,9.26611
43.3239,7.303
43.3611,12.3444
43.3983,25.3904
43.4354,7.44099
43.4726,10.4961
43.5098,0.555771
43.5469,5.62
43.5841,4.68879
43.6213,-2.23787
43.6585,3.84003
43.6956,11.9225
43.7328,9.00951
43.77,-3.89892
43.8072,0.197216
43.8443,9.2979
43.8815,3.40315
43.9187,7.51296
43.9558,-7.37268
43.993,14.7462
44.03018,0.869728
44.0674,12.9978
44.1045,-0.86964
44.1417,3.26751
44.1789,-2.59077
44.216,1.55549
44.2532,5.70632
44.2904,-2.13829
44.3276,-5.97835
44.3647,6.87047
44.4019,8.72385
44.4391,7.58179
44.4762,0.444294
44.5134,8.31135
44.5506,-1.81704
44.5878,-4.94087
44.6249,-3.06014
44.6621,7.82515
44.6993,1.71499
44.7364,-0.390602
44.7736,7.508358
44.8108,17.4119
44.848,5.31995
44.8851,12.2326
44.9223,5.14978
44.95947,3.07153
44.9966,2.99783
45.0338,-1.0713
45.071,-9.13588
45.1082,11.8041
45.1453,4.74864
45.1825,13.6977
45.2197,3.65139
45.2568,19.6096
45.294,0.572376
45.3312,10.5397
45.3684,13.5116
45.4055,0.488033
45.4427,-2.53096
45.4799,3.45459
45.517,21.4447
45.5542,8.43938
45.5914,23.4386
45.6286,26.4424
45.6657,16.4508
45.7029,21.4637
45.7401,8.48113
45.7772,19.5031
45.8144,30.5297
45.8516,36.5609
45.88876,55.5966
45.9259,73.6368
45.9631,152.682
46.0003,192.731
46.0374,159.785
46.0746,159.843
46.1118,155.906
46.149,106.974
46.1861,98.0462
46.2233,72.1229
46.2605,45.2042
46.2976,48.29
46.3348,19.3804
46.372,8.47536
46.4092,6.57487
46.4463,16.6789
46.4835,5.78755
46.5207,8.90073
46.5578,4.01847
46.595,2.14076
46.6322,2.26761
46.6694,2.39902
46.7065,-2.46501
46.7437,5.67551
46.7809,7.8206
46.81805,22.9702
46.8552,17.1244
46.8924,11.2832
46.9296,6.44651
46.9667,6.61438
47.0039,8.78681
47.0411,-0.0362015
47.0783,-4.85466
47.1154,6.33145
47.1526,-9.47789
47.1898,7.58714
47.2269,10.6567
47.2641,13.7309
47.3013,6.80957
47.3385,-0.107166
47.3756,8.98065
47.4128,-2.92697
47.45,-1.83004
47.4871,-1.72855
47.5243,-0.622498
47.5615,-1.52062
47.5987,2.57708
47.6358,5.67934
47.673,-0.213844
47.7102,14.8975
47.74734,8.01347
47.7845,-2.86605
47.8217,0.259003
47.8589,13.3886
47.896,-6.47723
47.9332,2.2893
47.9704,15.0604
48.0075,7.83604
48.0447,11.6162
48.0819,17.401
48.1191,-5.80968
48.1562,8.9842
48.1934,5.78263
48.2306,2.58563
48.2677,-0.606823
48.3049,13.2053
48.3421,-8.97805
48.3793,3.83701
48.4164,11.6566
48.4536,9.48078
48.4908,0.309505
48.5279,9.14279
48.5651,2.98063
48.6023,16.823
48.6395,5.66999
48.67663,-6.4785
48.7138,0.361477
48.751,-1.79398
48.7881,19.0551
48.8253,4.90876
48.8625,7.76697
48.8997,11.6297
48.9368,14.4971
48.974,15.3689
49.0112,26.2454
49.0483,32.1264
49.0855,33.0119
49.1227,37.9021
49.1599,69.7967
49.197,56.696
49.2342,117.6
49.2714,141.508
49.3085,203.421
49.3457,333.338
49.3829,482.26
49.4201,454.187
49.4572,396.118
49.4944,333.054
49.5316,333.994
49.5687,227.939
49.60592,158.888
49.6431,100.842
49.6803,57.8007
49.7174,50.7638
49.7546,46.7314
49.7918,39.7035
49.8289,26.6802
49.8661,34.6615
49.9033,19.6473
49.9405,23.6377
49.9776,16.6327
50.0148,39.6322
50.052,23.6362
50.0892,47.6448
50.1263,45.658
50.1635,43.6758
50.2007,54.6981
50.2378,59.7249
50.275,53.7563
50.3122,51.7923
50.3494,29.8328
50.3865,18.8779
50.4237,25.9275
50.4609,39.9817
50.498,28.0405
50.53521,33.1038
50.5724,32.1717
50.6096,21.2441
50.6467,23.3211
50.6839,40.4026
50.7211,35.4887
50.7582,15.5794
50.7954,13.6746
50.8326,23.7744
50.8698,8.8787
50.9069,8.98759
50.9441,17.101
50.9813,9.21904
51.0184,26.3416
51.0556,23.4687
51.0928,2.60041
51.13,12.7366
51.1671,14.8774
51.2043,9.0228
51.2415,12.1727
51.2786,13.3272
51.3158,4.4862
51.353,11.6498
51.3902,11.8179
51.4273,14.9906
51.4645,9.16789
51.5017,21.3497
51.5388,-5.46392
51.576,18.727
51.6132,-3.0775
51.6504,3.97117
51.6875,-4.12697
51.7247,22.7794
51.7619,13.6904
51.799,0.605942
51.8362,11.526
51.8734,12.4507
51.9106,4.37988
51.9477,2.31364
51.9849,8.25196
52.0221,9.19483
52.0592,11.1423
52.0964,11.0943
52.1336,18.0508
52.1708,10.0119
52.2079,25.9776
52.2451,43.9478
52.2823,60.9226
52.3194,62.9019
52.3566,56.8858
52.39379,44.8743
52.431,23.8673
52.4681,48.8649
52.5053,24.867
52.5425,20.8737
52.5796,4.88491
52.6168,11.9007
52.654,-4.07893
52.6912,7.94599
52.7283,7.97547
52.7655,12.0095
52.8027,9.04809
52.8398,10.0912
52.877,-2.86105
52.9142,-3.80879
52.9514,-0.751968
52.9885,3.30941
53.0257,11.3753
53.0629,15.4458
53.1001,2.5209
53.1372,2.60051
53.1744,-2.31532
53.2116,-0.226597
53.2487,10.8667
53.2859,-1.03547
53.32308,7.06693
53.3603,-1.82611
53.3974,2.2854
53.4346,3.40148
53.4718,-9.47789
53.5089,1.39773
53.5461,9.27791
53.5833,-8.83735
53.6205,3.05194
53.6576,19.9458
53.6948,18.8442
53.732,7.74717
53.7691,4.6547
53.8063,5.56678
53.8435,2.48342
53.8807,4.40462
53.9178,11.3304
53.955,9.26069
53.9922,20.1956
54.0293,32.135
54.0665,10.079
54.1037,22.0275
54.1409,12.9806
54.178,5.9383
54.2152,-0.09948349
54.25237,-1.13271
54.2895,14.8386
54.3267,7.81452
54.3639,0.794975
54.4011,2.77998
54.4382,9.76955
54.4754,-0.236324
54.5126,-1.23764
54.5497,-2.2344
54.5869,2.7734
54.6241,-1.21425
54.6613,-9.19733
54.6984,1.82413
54.7356,-11.1498
54.7728,-2.11925
54.8099,2.9159
54.8471,2.9556
54.8843,6.99986
54.9215,10.0487
54.9586,10.1021
54.9958,2.15999
55.033,-0.777519
55.0701,1.21315
55.1073,6.13198
55.1445,13.0554
55.18166,17.9833
55.2188,19.9158
55.256,-0.147083
55.2932,7.79454
55.3303,11.7407
55.3675,9.69147
55.4047,21.6468
55.4419,24.6066
55.479,14.5711
55.5162,19.54
55.5534,33.5136
55.5905,10.4916
55.6277,13.4743
55.6649,18.4615
55.7021,20.45327
55.7392,16.4496
55.7764,15.45047
55.8136,11.4559
55.8507,18.4659
55.8879,16.4805
55.9251,5.49957
55.9623,12.5232
55.9994,10.5515
56.0366,11.5842
56.0738,2.62159
56.11095,7.66349
56.1481,5.70995
56.1853,1.76096
56.2225,14.8165
56.2596,8.87667
56.2968,6.94136
56.334,3.0106
56.3712,-0.915592
56.4083,7.16277
56.4455,-1.75431
56.4827,13.3332
56.5198,9.42521
56.557,-14.4782
56.5942,-0.434822
56.6314,4.61311
56.6685,12.6656
56.7057,6.72266
56.7429,3.78427
56.78,9.85043
56.8172,5.92116
56.8544,1.99644
56.8916,12.0763
56.9287,16.1607
56.9659,7.24963
57.0031,-5.65685
57.04024,-0.100105
57.0774,6.4612
57.1146,15.0271
57.1518,9.59749
57.1889,7.17247
57.2261,0.75201
57.2633,5.33611
57.3004,9.92476
57.3376,1.51797
57.3748,15.1157
57.412,1.71807
57.4491,19.325
57.4863,-0.0636024
57.5235,15.5524
57.5606,19.173
57.5978,0.798073
57.635,31.4277
57.6722,12.062
57.7093,18.7008
57.7465,28.3441
57.7837,30.992
57.8208,32.6445
57.858,26.3015
57.8952,64.9631
57.9324,74.6292
57.96953,98.2999
58.0067,122.975
58.0439,152.655
58.081,90.3393
58.1182,90.0283
58.1554,115.722
58.1926,134.4198
58.2297,119.122
58.2669,81.8296
58.3041,59.5413
58.3412,46.2575
58.3784,21.9784
58.4156,27.7038
58.4528,34.4337
58.4899,15.1682
58.5271,4.90728
58.5643,0.650898
58.6014,25.3991
58.6386,-0.848186
58.6758,-0.0908928
58.713,18.671
58.7501,4.43737
58.7873,18.2083
58.8245,24.9839
58.8616,36.7639
58.89882,71.5486
58.936,76.3378
58.9732,82.1315
59.0103,62.9298
59.0475,68.7327
59.0847,114.54
59.1218,170.352
59.159,105.169
59.1962,70.9898
59.2334,77.8154
59.2705,76.6457
59.3077,68.4804
59.3449,53.3198
59.3821,36.1637
59.4192,7.01212
59.4564,15.8651
59.4936,-1.27731
59.5307,-1.41518
59.5679,2.17452
59.6051,8.4918
59.6423,-2.18636
59.6794,4.14003
59.7166,7.47099
59.7538,7.8065
59.7909,3.14657
59.82811,4.4912
59.8653,-1.15962
59.9025,-5.3196
59.9396,1.01123
59.9768,-1.65337
60.014,-8.48528
60.0326,-9.16515